ax ay az gx gy gz
400 568 -16932 -588 249 100
488 808 -16748 -593 277 73
456 976 -16968 -572 247 157
628 664 -16884 -579 265 86
624 460 -16980 -606 270 30
664 812 -16860 -573 265 48
680 828 -17032 -551 239 36
608 400 -16976 -572 240 18
496 664 -16972 -612 252 -1
540 836 -16944 -611 286 37
524 552 -16968 -567 245 43
592 428 -16896 -603 237 76
416 628 -16836 -606 232 86
472 748 -16904 -578 241 124
512 476 -16864 -557 268 158
580 472 -16932 -572 266 147
532 848 -17008 -547 275 107
536 800 -16760 -553 223 175
540 632 -16884 -618 283 172
556 792 -16888 -555 275 179
616 884 -16888 -580 265 142
592 832 -16956 -558 234 122
636 744 -16860 -592 248 83
544 820 -16996 -593 249 63
544 828 -16840 -566 255 26
428 720 -17056 -592 276 28
680 680 -16972 -605 248 19
404 616 -16944 -612 229 6
608 680 -16820 -603 266 -7
372 608 -16852 -532 274 18
576 548 -16912 -555 262 67
484 728 -16920 -569 274 60
460 688 -16936 -579 244 145
528 604 -16880 -597 277 142
492 684 -16844 -656 244 136
548 784 -16996 -579 266 157
544 716 -17016 -583 283 151
656 776 -17064 -575 265 143
600 752 -16820 -600 207 98
492 712 -16936 -559 252 96
584 944 -16780 -542 247 65
544 760 -16948 -550 248 64
532 756 -16912 -595 274 62
524 808 -16964 -561 258 -6
496 676 -16840 -567 283 -10
688 636 -17020 -557 243 -2
644 604 -16984 -605 259 -38
692 640 -17044 -568 251 -8
680 608 -16900 -564 245 -13
604 464 -16984 -546 251 6
552 624 -16848 -563 222 80
396 576 -16936 -595 257 115
356 616 -16996 -577 276 145
452 628 -16876 -539 267 205
468 628 -16976 -587 271 229
464 732 -16992 -589 263 192
464 684 -16984 -607 244 187
548 772 -16944 -575 275 187
576 720 -16960 -586 277 142
608 800 -16988 -602 262 89
616 796 -17036 -572 276 57
648 884 -16956 -592 238 -9
600 852 -16964 -618 254 -50
532 744 -16876 -587 259 -14
584 724 -16908 -614 284 -27
572 692 -16972 -626 265 7
564 696 -16888 -587 270 5
552 624 -16948 -583 247 42
424 588 -17024 -621 233 48
464 580 -16828 -587 280 111
536 544 -16964 -569 241 152
520 612 -17044 -569 281 155
568 724 -16968 -564 239 167
484 696 -16880 -556 256 154
464 704 -17056 -598 255 162
560 776 -16924 -595 236 176
528 736 -16944 -589 270 122
564 736 -16984 -593 246 91
580 704 -16964 -575 278 32
560 740 -16956 -567 217 36
528 660 -16876 -560 252 -11
496 684 -16896 -572 272 25
520 672 -17012 -560 254 2
532 676 -16940 -598 268 3
492 640 -17020 -587 259 20
580 636 -16868 -550 272 102
584 620 -16940 -600 264 93
548 588 -17040 -602 234 86
652 748 -16856 -521 246 152
576 712 -17000 -561 228 159
544 804 -16940 -525 242 117
604 844 -16876 -571 243 171
600 788 -17060 -620 234 145
540 864 -16936 -583 256 118
532 848 -17048 -593 240 137
532 864 -16960 -565 264 154
484 824 -16960 -582 229 84
584 832 -16972 -618 264 25
524 672 -16948 -571 241 36
548 656 -16876 -576 255 -31
620 588 -16952 -578 246 -84
592 672 -16904 -584 278 -80
532 592 -16976 -526 233 -57
592 528 -16988 -581 274 -53
464 556 -16940 -596 243 -19
480 512 -17080 -583 274 43
468 476 -16952 -599 257 34
428 580 -16912 -563 243 152
436 616 -16956 -602 252 158
492 608 -16936 -612 242 214
484 644 -16868 -578 235 256
528 680 -16964 -568 221 253
652 764 -16944 -593 230 230
612 788 -17028 -556 233 180
680 812 -16952 -582 278 167
648 820 -16940 -585 256 158
608 860 -17076 -582 284 81
624 888 -16928 -576 236 57
608 844 -16968 -596 252 29
576 792 -16900 -583 268 -28
508 792 -16892 -637 256 -20
536 668 -17016 -560 269 -39
496 620 -17052 -571 251 -3
520 632 -16916 -620 240 -24
424 668 -16924 -579 245 37
456 624 -16952 -598 249 120
476 596 -16948 -586 242 95
480 580 -16988 -549 230 113
580 656 -17040 -574 281 139
508 640 -16988 -583 257 201
636 712 -16884 -576 225 182
588 728 -16944 -560 262 129
596 720 -16912 -592 260 128
572 728 -16888 -615 244 75
628 756 -16984 -587 246 74
644 728 -16992 -592 255 59
536 684 -16892 -593 240 42
488 784 -16964 -617 251 35
460 728 -16996 -593 263 29
592 804 -16936 -583 258 54
500 708 -17000 -544 254 87
552 632 -16888 -583 275 57
560 696 -16972 -576 261 70
556 632 -17008 -575 257 86
552 680 -16940 -584 256 78
552 700 -16988 -566 263 111
524 680 -16932 -614 239 113
536 644 -16960 -541 264 122
560 712 -16996 -598 280 112
512 724 -16956 -618 262 102
516 728 -16940 -571 250 99
576 656 -16900 -595 261 129
480 660 -16844 -592 227 82
520 708 -16920 -624 234 58
500 720 -16856 -569 274 69
584 688 -17076 -592 254 92
536 720 -16932 -574 225 68
536 736 -17100 -600 266 92
492 680 -16944 -606 253 57
604 660 -16980 -566 245 62
512 688 -16892 -607 238 103
560 688 -16968 -556 255 99
548 748 -16972 -560 266 64
588 724 -16884 -600 243 105
488 692 -16852 -593 215 75
536 712 -16968 -567 261 88
492 596 -17048 -575 233 97
532 652 -17128 -585 278 63
456 700 -17024 -587 258 57
568 744 -16868 -548 304 106
616 788 -16972 -598 260 61
588 700 -16960 -590 249 71
520 760 -16920 -576 221 54
516 732 -16932 -573 261 69
572 752 -17056 -592 251 79
496 712 -17064 -559 258 77
488 660 -16940 -552 245 100
440 684 -16988 -565 253 104
520 748 -16964 -591 247 84
568 752 -16956 -614 229 113
596 668 -16964 -622 267 89
584 680 -17048 -575 255 99
604 768 -16936 -588 238 64
504 640 -16916 -570 289 86
580 732 -16940 -581 243 49
580 704 -17020 -568 243 88
584 716 -16900 -563 239 95
540 724 -16932 -583 252 86
516 644 -16916 -557 268 96
568 644 -17008 -583 262 66
532 684 -16920 -581 274 80
520 736 -16864 -546 258 88
488 680 -16876 -555 248 79
524 680 -16896 -583 236 77
460 708 -16896 -541 251 94
520 664 -17028 -607 264 54
520 724 -17008 -591 270 91
524 716 -16944 -567 247 51
580 668 -16920 -589 248 97
532 676 -16960 -614 257 89
552 664 -16908 -560 253 48
604 660 -16992 -557 220 49
564 676 -16888 -565 233 45
548 692 -16964 -563 275 63
540 732 -16836 -587 258 141
552 712 -16972 -604 230 90
560 736 -16940 -607 239 82
532 660 -16960 -578 247 104
516 692 -16936 -585 261 72
520 696 -16940 -592 261 67
588 708 -16800 -556 234 74
544 752 -16864 -603 231 69
472 620 -16852 -617 263 75
532 760 -16984 -609 299 57
560 708 -16996 -552 266 72
508 692 -17072 -599 266 87
508 748 -16980 -564 277 98
492 652 -16900 -597 262 103
504 708 -16900 -552 247 87
532 696 -16952 -593 223 50
520 728 -16936 -590 257 49
568 664 -16892 -588 259 87
464 660 -16932 -585 282 20
552 724 -16976 -593 265 81
556 640 -16992 -583 240 54
576 624 -16932 -571 271 93
548 664 -17072 -566 212 34
600 740 -17024 -631 256 107
556 700 -16952 -575 236 87
496 756 -16952 -599 256 67
544 704 -16836 -579 258 68
572 684 -16880 -578 253 90
476 716 -16960 -578 220 85
588 700 -16916 -568 261 81
532 672 -16868 -578 239 69
572 752 -16996 -592 269 98
584 692 -16948 -602 265 68
592 764 -16916 -590 276 61
592 668 -16988 -551 264 72
552 720 -16904 -598 244 36
520 668 -16916 -571 249 45
588 712 -16996 -590 230 53
596 692 -16892 -576 263 91
592 684 -16904 -599 227 102
572 704 -16860 -603 265 84
540 676 -17072 -604 202 89
560 648 -17012 -576 237 26
496 788 -16960 -582 227 64
472 724 -17028 -584 238 83
532 728 -17020 -582 209 80
520 704 -17120 -569 242 88
580 708 -16900 -591 275 64
516 740 -17004 -593 270 86
580 768 -16948 -552 257 92
680 724 -16976 -626 248 49
288 620 -16968 -599 259 56
716 868 -16968 -583 263 26
428 680 -17040 -601 231 61
564 636 -17028 -592 253 87
496 688 -16824 -595 268 101
488 660 -16988 -523 277 113
688 632 -16900 -582 265 57
512 588 -17020 -577 213 58
596 760 -16932 -591 221 61
528 756 -17016 -572 234 41
484 608 -16828 -539 247 68
468 664 -16904 -599 229 78
336 728 -16884 -579 243 131
432 724 -17028 -572 254 97
552 608 -16920 -598 220 85
464 684 -16948 -576 256 92
500 708 -16888 -549 266 76
540 648 -16960 -576 274 83
540 644 -16924 -596 271 53
576 692 -16984 -584 267 58
524 660 -16936 -556 270 30
492 648 -16908 -584 278 60
520 676 -16932 -584 256 42
584 764 -16944 -599 280 75
560 768 -16896 -586 277 73
576 732 -17016 -589 242 95
552 668 -16908 -588 223 125
580 728 -16924 -566 253 85
564 668 -16944 -582 250 128
652 728 -16928 -578 239 69
560 768 -16980 -606 272 63
612 740 -16948 -579 228 58
600 748 -16828 -535 256 101
560 792 -17012 -576 264 63
652 716 -16920 -604 239 61
540 684 -16984 -584 210 71
588 672 -16836 -620 239 81
464 660 -16904 -570 263 97
516 652 -16928 -556 262 15
556 636 -16908 -572 253 41
480 628 -16944 -579 238 47
436 684 -16912 -586 249 46
448 664 -16844 -607 248 74
496 672 -16964 -595 273 135
496 680 -16964 -600 264 59
644 720 -16940 -612 248 115
560 712 -16956 -560 234 80
544 648 -16960 -551 261 92
592 744 -17000 -586 253 84
568 756 -16884 -578 263 88
596 640 -16952 -557 244 102
552 720 -16992 -575 251 66
588 756 -16988 -576 234 83
564 676 -16932 -569 231 85
476 592 -16904 -562 232 53
528 684 -16840 -593 262 80
492 684 -17028 -574 275 89
508 728 -17056 -594 258 64
552 728 -17020 -552 230 60
456 740 -16956 -562 261 98
524 740 -16820 -592 253 110
564 684 -16888 -600 235 110
532 728 -16952 -579 281 32
552 764 -17084 -567 269 91
460 756 -17060 -570 251 77
504 688 -16944 -601 257 69
568 712 -16956 -597 249 78
560 664 -16956 -568 229 66
640 628 -16828 -595 245 67
596 632 -16952 -609 264 61
524 708 -16960 -560 247 60
552 716 -16952 -543 219 63
544 692 -16992 -596 258 82
516 660 -16836 -598 267 105
568 680 -16876 -575 237 111
508 692 -17028 -593 273 62
468 760 -16980 -581 246 102
532 712 -16992 -580 222 92
548 752 -17032 -618 259 80
516 664 -17008 -595 256 60
500 708 -16920 -581 236 56
492 804 -17004 -579 269 58
520 736 -16936 -581 286 32
548 720 -16860 -568 260 91
508 732 -17004 -586 274 86
556 680 -16816 -613 279 98
560 676 -17004 -599 265 59
596 636 -16936 -589 265 45
560 672 -16932 -565 221 63
592 664 -16952 -572 255 60
584 732 -17044 -555 272 98
632 696 -16920 -595 251 94
536 740 -16832 -573 248 88
568 688 -17048 -564 255 104
540 728 -16932 -595 260 86
544 704 -16956 -594 286 95
528 676 -16884 -588 240 52
516 724 -16840 -579 258 46
544 780 -16972 -575 242 97
500 684 -16928 -559 254 68
588 728 -16952 -553 271 89
556 756 -16964 -561 256 66
564 648 -17020 -580 264 112
552 696 -16992 -590 286 79
588 752 -17000 -613 253 69
536 676 -16968 -573 253 73
552 728 -16976 -568 239 82
564 740 -16880 -581 233 112
472 648 -16952 -589 254 100
496 716 -17000 -606 256 118
536 724 -16908 -598 224 117
500 716 -17048 -585 249 70
476 752 -17056 -576 262 65
548 732 -17064 -569 229 82
504 784 -16920 -581 250 69
516 720 -16884 -593 243 52
604 724 -17016 -555 249 96
516 712 -16964 -602 216 36
540 652 -16900 -558 259 41
556 716 -16996 -561 263 78
536 704 -16944 -600 245 89
524 684 -16888 -590 260 68
496 620 -16964 -543 288 96
516 688 -16896 -612 269 101
536 688 -16892 -597 275 65
532 696 -16808 -597 272 96
540 676 -16976 -593 263 84
548 712 -16956 -592 216 76
488 700 -16880 -565 238 116
600 652 -16904 -576 271 89
576 660 -16928 -615 217 60
584 740 -16960 -599 245 66
608 668 -16948 -573 246 53
564 708 -17044 -584 269 82
552 684 -17000 -571 249 75
516 724 -16964 -600 234 79
540 664 -16844 -568 244 70
564 656 -16944 -552 276 76
488 652 -17096 -579 231 85
608 700 -16924 -565 243 95
472 704 -16988 -577 261 85
560 692 -16944 -570 250 98
532 716 -16960 -573 268 74
604 708 -16932 -592 235 71
564 760 -16992 -540 242 70
576 676 -16884 -580 247 66
596 696 -17024 -585 252 75
612 676 -16956 -564 245 81
520 692 -17036 -584 260 68
520 680 -16900 -560 267 115
580 692 -16964 -581 245 82
512 716 -16932 -571 253 99
576 632 -16984 -561 274 104
588 716 -16948 -600 246 128
504 712 -16956 -583 241 79
496 740 -16980 -602 243 67
592 684 -16860 -625 215 87
508 696 -16936 -611 246 79
544 652 -16988 -590 246 109
572 708 -16948 -563 295 57
572 608 -17000 -580 258 82
556 700 -16992 -550 277 56
660 692 -16996 -582 257 80
596 632 -16888 -586 250 21
516 628 -16936 -582 255 87
632 696 -16916 -597 245 71
472 696 -17044 -556 260 59
520 720 -17092 -569 273 53
508 632 -16860 -618 237 69
560 712 -17012 -572 243 114
556 740 -16928 -607 236 105
544 680 -17036 -597 267 54
552 756 -16988 -527 245 64
584 768 -16960 -559 250 63
552 652 -16980 -593 280 54
544 720 -16952 -575 265 91
580 716 -16972 -573 280 104
564 648 -16948 -610 252 92
496 680 -16968 -576 233 83
536 696 -16936 -593 273 99
540 712 -16892 -567 264 84
540 644 -17048 -574 241 48
516 652 -16900 -569 256 80
540 712 -16968 -588 254 63
596 708 -16872 -549 265 74
536 748 -16952 -607 249 65
572 720 -17044 -604 244 52
552 740 -16908 -565 254 53
580 772 -17036 -607 231 81
600 680 -16844 -593 267 69
528 700 -16788 -557 251 57
512 612 -17016 -568 237 97
512 716 -16948 -550 246 85
452 696 -16968 -565 258 84
516 700 -16972 -574 235 90
512 696 -16980 -555 262 82
524 724 -16896 -568 248 48
520 684 -17004 -594 237 102
560 664 -16976 -605 271 55
620 680 -17024 -597 267 71
656 668 -16932 -575 244 58
512 640 -16860 -616 247 99
540 604 -16940 -586 207 76
476 456 -16800 -568 203 28
396 512 -16828 -630 237 31
316 580 -16956 -545 243 79
488 536 -17120 -556 260 55
468 628 -16940 -561 251 72
444 680 -16900 -548 284 68
504 844 -16852 -592 241 140
600 776 -17032 -574 277 157
752 852 -17076 -566 274 164
756 892 -16912 -581 269 192
784 808 -17056 -616 228 140
756 744 -16920 -592 207 152
784 780 -16908 -587 249 88
700 780 -16952 -593 196 82
644 744 -17024 -555 257 24
660 780 -16920 -573 239 -4
480 724 -16964 -586 218 -19
316 832 -16836 -608 194 50
212 816 -16900 -561 246 102
196 744 -16936 -574 228 84
288 812 -16984 -593 266 130
296 672 -16916 -623 248 159
384 640 -17028 -597 271 123
540 660 -16940 -580 291 127
644 616 -16984 -571 284 54
680 600 -16960 -553 290 19
652 652 -16936 -561 280 -43
676 660 -16976 -572 284 -45
556 648 -16928 -558 239 -33
616 692 -16920 -594 257 -14
600 708 -16936 -579 244 9
560 716 -16864 -600 242 57
584 616 -16952 -560 219 122
596 592 -17040 -639 248 197
544 632 -16912 -571 209 153
444 660 -16856 -568 251 149
480 672 -16872 -602 251 197
488 684 -17080 -604 223 180
452 824 -16916 -557 227 174
452 884 -16996 -571 262 188
552 876 -16928 -586 256 142
552 888 -16952 -618 257 75
668 824 -17008 -587 276 92
604 844 -16992 -595 251 17
592 724 -16972 -604 239 -29
628 660 -17036 -581 256 -59
592 624 -16948 -584 243 -99
556 620 -17004 -591 237 -103
504 560 -16996 -566 232 -83
468 500 -16876 -560 250 -59
412 508 -16892 -607 247 15
432 592 -16780 -557 256 53
516 504 -16892 -586 264 97
548 520 -17072 -584 239 121
552 592 -16928 -613 228 219
580 644 -16932 -584 272 241
548 588 -16952 -545 250 263
552 708 -16932 -611 229 244
556 716 -16948 -606 236 189
532 812 -16948 -555 238 184
512 812 -16924 -612 221 165
372 840 -16940 -613 225 91
476 836 -16968 -570 251 118
488 876 -16876 -567 289 1
572 828 -16920 -561 274 8
596 796 -16816 -557 255 -18
560 692 -16952 -580 278 -52
624 652 -17020 -575 243 -50
584 628 -16964 -548 261 -47
604 580 -17028 -577 240 21
568 564 -16928 -611 222 11
504 552 -17020 -572 237 67
516 428 -16872 -601 218 98
348 512 -16920 -604 215 128
368 580 -16912 -596 254 144
308 596 -16928 -588 239 187
360 616 -16988 -635 253 220
308 700 -16956 -587 258 227
404 796 -16904 -574 272 210
520 704 -16900 -547 261 189
604 860 -16932 -587 278 150
740 924 -17016 -577 278 144
748 936 -16984 -561 266 46
760 948 -16992 -562 228 31
784 896 -16960 -576 285 -44
772 856 -16984 -609 238 -1
776 792 -16948 -570 262 -30
640 748 -17028 -557 231 -46
636 700 -16912 -560 239 12
532 640 -16880 -588 256 13
408 584 -16856 -565 189 61
448 532 -16980 -627 243 75
388 548 -16948 -553 210 103
384 572 -16852 -609 270 152
420 644 -16932 -538 257 141
488 704 -16948 -529 286 168
464 636 -17004 -576 277 145
604 756 -16936 -609 260 167
600 756 -16936 -585 265 99
592 788 -16904 -583 301 79
728 748 -16888 -561 267 61
648 752 -16896 -573 260 2
668 644 -16880 -564 262 2
588 660 -16912 -560 280 -37
640 604 -16848 -590 246 -32
584 604 -16980 -591 212 -20
476 644 -17044 -583 244 -10
540 572 -16948 -592 246 42
472 588 -16864 -546 247 70
504 652 -16904 -590 284 125
464 624 -16868 -586 227 161
524 652 -16924 -610 277 180
532 716 -17024 -586 228 217
516 764 -16908 -575 267 193
512 772 -16912 -548 260 203
532 764 -17020 -564 245 153
616 820 -16840 -579 261 130
528 792 -16872 -626 243 83
600 820 -16992 -591 244 42
592 776 -16828 -600 251 -8
524 784 -16960 -616 254 -54
484 744 -16988 -572 258 2
476 660 -16948 -606 271 -46
436 676 -16848 -600 273 -30
536 592 -16976 -589 280 -10
588 640 -16956 -603 243 8
572 592 -16864 -620 265 90
604 600 -16912 -597 237 90
320 524 -16960 -596 261 79
604 740 -16964 -589 267 130
580 672 -16920 -514 214 172
520 668 -16976 -593 234 161
496 708 -16892 -628 257 132
456 708 -16876 -591 241 172
616 764 -16916 -584 280 146
540 660 -16968 -556 267 70
624 772 -16968 -589 252 71
644 788 -16888 -577 250 42
472 736 -16944 -572 239 33
568 724 -17008 -571 261 21
496 740 -16876 -608 279 37
576 704 -16956 -595 237 -5
600 716 -16876 -607 230 36
584 604 -16864 -593 220 13
508 680 -16816 -584 229 41
488 624 -16880 -591 248 71
564 600 -16984 -611 249 79
556 668 -16980 -599 240 97
516 684 -17028 -549 246 94
532 692 -16860 -611 226 132
496 680 -16916 -604 249 153
572 704 -17004 -578 251 140
516 704 -17008 -566 279 108
560 716 -16960 -572 245 103
484 688 -16964 -584 275 124
492 732 -17072 -606 228 77
536 692 -16936 -529 261 58
548 712 -16848 -626 278 78
488 716 -16976 -585 245 77
480 704 -16936 -599 273 74
596 688 -16880 -633 252 18
568 680 -16960 -553 263 50
552 724 -16956 -588 261 74
620 680 -16944 -540 231 71
588 700 -16980 -582 248 85
552 648 -16976 -533 250 73
560 692 -16920 -570 252 92
532 744 -16924 -574 223 88
496 684 -16900 -537 233 103
520 728 -16936 -616 251 129
464 660 -16956 -571 239 102
476 744 -16896 -586 251 81
480 756 -16912 -593 239 93
500 764 -16968 -594 240 111
472 712 -16992 -559 250 45
528 716 -16876 -546 269 81
572 696 -16920 -600 243 57
528 660 -17028 -560 287 43
476 700 -16980 -634 251 59
616 720 -17000 -625 231 54
540 672 -16968 -601 234 46
540 604 -16852 -568 258 69
524 684 -16864 -610 277 101
572 724 -17064 -577 242 99
512 624 -17028 -559 238 122
484 664 -16916 -578 256 113
552 760 -16888 -549 250 87
572 672 -16908 -549 262 67
556 700 -16972 -606 257 122
568 740 -16852 -622 251 80
524 768 -16924 -625 265 91
580 716 -16852 -607 247 73
576 668 -16880 -563 239 42
596 788 -17040 -557 249 44
552 680 -17028 -583 270 63
528 644 -16988 -593 254 53
456 648 -16888 -596 257 54
572 672 -16844 -564 272 51
496 704 -17016 -579 230 79
536 676 -16996 -584 220 91
488 708 -16932 -574 266 80
556 704 -16936 -598 242 102
552 680 -17016 -556 257 57
532 732 -16880 -602 272 96
576 760 -17036 -606 239 93
600 680 -17064 -574 264 88
540 672 -16872 -568 239 90
516 740 -16912 -571 240 23
520 668 -17028 -603 284 67
540 696 -16832 -557 236 101
528 668 -16856 -594 243 41
536 700 -16964 -609 248 47
560 648 -16888 -604 250 86
576 660 -17032 -598 268 81
528 644 -17004 -595 263 102
540 612 -16912 -599 240 82
548 684 -16980 -584 230 66
576 664 -16936 -590 240 137
532 632 -17016 -581 236 94
524 692 -16848 -596 238 77
576 776 -16944 -577 256 82
472 704 -16884 -613 257 57
492 648 -17044 -593 266 78
516 720 -16964 -616 246 81
456 636 -16940 -575 291 82
504 724 -16988 -563 223 70
588 720 -16904 -575 257 84
564 704 -16916 -597 268 55
580 720 -16900 -594 223 101
548 624 -17008 -587 255 84
584 680 -16968 -593 221 74
528 660 -17032 -595 218 97
480 660 -16996 -561 270 74
504 672 -17032 -586 255 133
508 644 -16832 -590 277 96
528 696 -16920 -592 233 71
472 740 -17012 -578 282 43
572 688 -16932 -585 250 58
564 728 -17008 -602 262 96
516 632 -17000 -545 260 71
492 692 -16880 -558 241 56
524 756 -16808 -554 235 65
520 680 -17036 -560 222 74
540 664 -17012 -572 261 57
576 720 -16900 -602 260 74
636 704 -16936 -596 285 85
588 716 -16856 -582 243 109
568 696 -17028 -583 250 105
552 712 -16976 -565 239 60
588 680 -16972 -558 263 60
532 740 -16980 -608 256 110
516 712 -17016 -577 230 78
580 764 -17016 -591 294 64
548 772 -16904 -560 230 55
576 696 -16896 -547 268 79
560 692 -16832 -547 218 91
556 696 -16876 -562 214 95
540 748 -17032 -558 262 81
540 712 -16908 -563 269 60
508 648 -17012 -606 250 121
532 768 -16948 -573 256 61
552 672 -16964 -592 248 52
520 700 -16952 -579 248 89
616 740 -16896 -599 247 103
556 660 -16984 -567 243 70
624 768 -17000 -563 268 120
568 708 -16932 -585 253 78
580 712 -17008 -561 260 85
520 660 -16880 -576 243 108
576 756 -16984 -567 227 127
508 724 -16876 -580 242 97
472 684 -16976 -628 266 101
524 644 -16956 -569 248 52
520 724 -16904 -589 289 59
460 652 -16984 -568 236 60
564 752 -16924 -558 236 104
536 728 -16864 -591 257 72
532 736 -16984 -583 248 69
544 652 -16968 -577 263 67
524 692 -16872 -534 231 78
604 664 -16924 -582 274 129
600 708 -16960 -565 236 79
508 712 -17028 -559 243 84
552 676 -16984 -553 250 45
576 704 -16928 -583 236 51
592 740 -16864 -566 279 64
532 720 -16904 -580 259 94
500 672 -17040 -556 265 76
576 724 -17012 -578 269 64
572 688 -16912 -557 242 103
536 588 -16928 -581 259 59
512 688 -16876 -567 259 45
532 664 -16996 -543 242 46
496 720 -16824 -576 278 98
516 656 -16880 -592 252 88
536 704 -16972 -589 240 77
452 664 -16936 -576 259 68
520 704 -16892 -607 247 122
536 764 -16916 -557 228 80
592 796 -16936 -557 269 38
532 688 -16972 -591 267 72
572 680 -17048 -543 250 81
532 696 -16944 -561 274 66
624 684 -17032 -575 262 59
528 752 -17024 -584 249 93
516 732 -16968 -557 201 72
564 692 -16968 -596 250 87
556 672 -16956 -615 270 93
536 688 -16892 -569 256 85
572 700 -16892 -561 224 82
492 648 -16912 -578 252 71
536 648 -16968 -582 237 64
556 724 -17016 -578 233 110
536 680 -16916 -633 258 90
552 676 -16904 -567 257 47
480 720 -16992 -602 216 104
588 652 -16908 -589 269 92
532 712 -16948 -571 267 75
568 688 -16964 -584 269 64
504 688 -16912 -564 238 80
552 700 -16984 -566 253 80
624 736 -16968 -586 246 59
528 712 -16908 -609 246 78
536 700 -16928 -564 276 53
504 744 -16924 -552 244 83
608 684 -16952 -548 242 53
564 712 -16960 -576 233 71
540 720 -16904 -549 268 65
576 696 -16972 -588 270 45
556 680 -16892 -644 231 95
516 728 -16952 -557 256 71
480 712 -16952 -552 251 116
540 732 -16972 -595 258 122
544 668 -16892 -561 250 63
552 724 -16964 -570 273 84
536 664 -16932 -575 243 66
552 732 -17020 -578 219 81
592 672 -16832 -575 248 47
552 704 -16856 -599 259 93
568 716 -16916 -573 237 64
544 716 -16872 -539 269 82
524 616 -16832 -569 246 66
544 668 -16968 -557 257 67
552 708 -16828 -603 261 75
580 692 -17024 -574 247 57
564 656 -17092 -591 282 94
492 676 -16912 -567 237 73
528 692 -17032 -613 264 128
492 728 -16948 -593 258 95
608 704 -17032 -558 284 115
552 756 -16956 -585 263 81
532 752 -16844 -575 258 45
584 688 -17032 -546 249 98
544 744 -16948 -564 261 97
524 680 -17004 -612 249 95
548 720 -17000 -556 265 54
580 736 -16956 -585 232 99
512 668 -17016 -613 229 72
472 644 -16988 -584 232 72
508 684 -16848 -631 275 65
588 608 -17060 -567 236 50
560 616 -16980 -573 241 95
472 692 -16992 -614 268 67
576 648 -16920 -583 232 96
508 636 -16872 -589 252 76
528 692 -16924 -599 240 79
508 712 -16852 -572 247 86
532 728 -16876 -558 235 97
540 716 -16948 -568 238 73
500 700 -16980 -576 254 107
552 672 -16908 -560 274 82
468 732 -16832 -601 247 119
544 672 -16860 -588 241 62
580 704 -16924 -558 244 95
532 696 -16992 -562 241 77
524 736 -16972 -579 260 71
560 704 -16860 -589 273 99
568 736 -16988 -573 257 60
580 676 -16956 -553 270 70
552 732 -16984 -592 264 66
600 692 -16972 -607 215 51
532 684 -16980 -520 247 56
576 776 -16852 -560 262 90
528 684 -16976 -490 241 86
540 668 -16908 -559 241 91
524 672 -16844 -559 268 65
516 688 -16976 -579 230 108
456 700 -16928 -582 262 111
572 604 -16964 -579 216 76
520 732 -16944 -574 265 93
524 696 -16864 -564 248 88
456 712 -17036 -609 247 60
556 684 -17012 -561 251 47
428 668 -16940 -599 243 78
544 648 -16960 -590 245 70
552 728 -16896 -587 251 71
628 632 -16968 -594 272 79
572 656 -16940 -572 226 65
540 720 -17032 -594 227 89
620 692 -17008 -632 279 89
580 748 -16968 -619 225 77
520 740 -16992 -603 266 93
584 780 -17064 -558 276 64
568 708 -16888 -606 241 97
564 724 -17040 -547 264 98
572 696 -16836 -539 205 78
536 684 -17012 -600 254 96
576 684 -16964 -588 258 46
564 680 -16892 -582 242 68
564 720 -16968 -567 288 49
500 724 -16940 -586 226 69
624 692 -16952 -608 218 87
552 688 -16960 -561 265 62
536 704 -16980 -549 255 100
500 724 -16900 -524 244 106
548 720 -16964 -594 242 93
520 640 -17008 -549 255 102
524 660 -17000 -596 233 120
560 716 -16972 -594 229 53
520 704 -16916 -590 253 92
544 736 -16996 -591 254 101
528 728 -16932 -584 264 38
540 684 -16972 -579 275 56
540 736 -16892 -599 255 84
560 728 -16932 -561 276 89
584 740 -16968 -586 240 98
488 688 -16944 -564 261 98
540 724 -16992 -559 255 102
564 684 -16992 -574 221 71
524 692 -16924 -536 260 78
584 752 -16984 -562 252 97
580 732 -17016 -598 260 90
528 700 -16988 -578 291 79
524 760 -16908 -576 237 118
636 728 -16960 -597 277 84
608 676 -16952 -624 289 96
552 676 -16884 -635 241 61
496 700 -17020 -606 290 49
504 704 -17012 -578 263 93
580 672 -16908 -582 239 95
588 668 -16896 -606 259 127
540 700 -17000 -571 229 105
540 680 -17024 -569 264 102
504 720 -17088 -567 269 110
512 736 -16888 -583 227 90
524 704 -16892 -576 239 117
576 692 -17080 -585 265 101
548 708 -16996 -581 272 82
524 748 -17020 -552 254 68
520 744 -16920 -601 280 89
572 640 -16924 -570 253 85
532 724 -16932 -580 254 89
536 708 -16928 -565 228 71
516 680 -16988 -582 273 69
516 668 -16880 -588 236 96
544 776 -16988 -558 274 63
500 736 -16948 -552 234 53
568 632 -16864 -540 233 60
548 748 -16924 -589 233 91
504 672 -16860 -596 204 95
500 712 -17076 -562 248 114
584 708 -16924 -592 249 101
532 716 -17004 -560 217 94
548 772 -16916 -577 248 61
436 684 -16972 -578 231 93
492 684 -17000 -573 260 60
504 692 -16920 -612 242 70
552 692 -17020 -574 264 50
608 760 -16964 -530 217 93
548 648 -16920 -577 253 63
544 736 -17048 -624 250 75
572 720 -16980 -575 238 97
544 688 -16940 -598 280 97
584 680 -16984 -536 258 49
524 680 -16896 -559 256 109
560 680 -16892 -595 265 55
584 680 -16904 -618 262 89
580 660 -16932 -599 239 107
532 716 -16840 -597 276 71
492 708 -16936 -565 239 93
536 696 -16856 -597 270 43
532 716 -17104 -583 250 72
512 704 -17004 -572 265 86
492 616 -16988 -585 255 58
640 724 -16924 -571 262 95
524 704 -17028 -595 260 76
512 672 -16944 -624 256 66
572 712 -16896 -588 279 77
528 628 -16912 -588 287 104
552 640 -16984 -589 237 66
528 744 -16952 -582 236 52
544 668 -16936 -607 251 142
548 700 -16956 -617 286 71
592 680 -16916 -559 254 47
592 668 -16944 -597 238 95
520 748 -17004 -612 244 90
568 724 -17000 -590 253 104
572 700 -16952 -606 288 88
560 740 -16992 -595 256 62
540 744 -16908 -586 262 70
512 716 -16952 -583 267 69
504 648 -17008 -613 289 86
540 752 -17044 -562 247 57
560 696 -16868 -589 251 106
508 676 -17076 -578 274 69
504 736 -16876 -578 241 99
496 760 -17016 -592 269 66
512 696 -16984 -576 220 78
552 736 -17036 -578 276 70
512 696 -16940 -572 251 58
580 772 -16996 -607 260 98
548 668 -16988 -541 271 54
560 708 -16932 -628 298 60
488 700 -16908 -598 258 55
512 712 -16936 -578 264 80
520 676 -16860 -603 262 45
604 596 -16900 -595 254 52
572 664 -16928 -583 269 79
568 676 -17000 -574 255 66
540 708 -16860 -580 257 82
540 680 -16884 -573 243 93
668 724 -16844 -582 213 64
572 700 -16976 -596 255 84
596 700 -16916 -563 279 81
604 724 -16924 -582 258 86
552 720 -16992 -626 255 86
528 660 -17020 -579 290 83
496 676 -17016 -581 223 94
584 708 -16916 -585 247 51
564 720 -16908 -571 255 91
536 716 -16932 -555 233 82
516 648 -16940 -619 225 87
564 696 -16940 -578 250 100
476 720 -16988 -568 242 90
560 708 -16932 -573 273 93
540 704 -16912 -585 262 96
520 736 -16940 -572 262 70
548 780 -16928 -546 239 51
592 736 -16956 -598 248 56
584 660 -16876 -600 238 57
680 664 -16860 -603 224 119
480 752 -16988 -591 211 92
532 664 -17016 -574 235 101
544 736 -16996 -588 265 67
588 684 -16980 -616 270 76
516 760 -16928 -578 276 116
508 704 -17020 -574 240 99
552 720 -17016 -595 223 111
544 716 -16900 -599 244 68
592 692 -16916 -588 235 87
532 724 -16920 -586 269 57
580 696 -17004 -558 261 84
460 652 -16880 -575 234 79
536 716 -16924 -563 243 49
536 740 -17008 -552 243 49
572 696 -16816 -602 234 59
580 672 -16888 -580 242 94
532 740 -17012 -586 256 76
528 676 -16860 -591 253 104
532 744 -16936 -603 260 133
564 752 -17000 -571 242 59
604 728 -16916 -572 262 144
484 720 -16996 -569 273 95
568 708 -16988 -600 252 118
500 656 -17024 -550 220 70
560 604 -16976 -574 264 83
540 692 -17000 -578 256 85
532 708 -16928 -610 260 35
536 640 -16956 -611 238 99
500 612 -16964 -587 251 70
492 704 -16944 -583 240 94
576 648 -16900 -598 235 78
432 668 -17024 -561 270 68
468 668 -16976 -588 253 91
520 652 -16972 -612 243 89
544 716 -16932 -585 269 122
524 732 -16984 -567 247 47
548 696 -16932 -585 243 101
544 648 -16996 -599 238 42
548 732 -16924 -541 238 66
544 712 -17036 -593 226 74
616 720 -16956 -572 280 81
548 696 -16912 -578 248 98
584 692 -16960 -589 270 76
528 668 -16940 -570 248 62
520 716 -16920 -619 273 84
572 696 -16808 -557 249 63
548 712 -16972 -626 232 104
560 704 -16888 -613 261 89
556 696 -16952 -590 249 89
552 696 -17020 -543 256 83
492 688 -16948 -588 262 92
504 668 -16952 -581 228 50
528 728 -16944 -527 263 65
508 704 -17004 -573 241 22
524 668 -17048 -593 258 91
560 668 -16884 -590 233 96
424 672 -16824 -593 276 77
588 812 -17012 -568 263 78
684 704 -16888 -575 213 81
516 588 -16912 -541 232 84
524 672 -16800 -640 270 81
580 808 -16936 -554 264 86
624 648 -17060 -572 273 90
612 600 -17044 -572 234 60
512 832 -17008 -596 200 123
528 728 -16716 -570 244 123
448 540 -16984 -568 231 88
440 736 -16912 -577 218 104
516 788 -16972 -572 269 74
552 668 -17000 -578 243 106
488 580 -16952 -581 216 68
444 768 -16912 -583 245 68
492 716 -16908 -580 268 70
588 644 -16996 -573 253 49
620 668 -17032 -609 258 68
548 756 -16944 -583 212 62
496 740 -16900 -584 237 73
528 612 -17004 -575 266 117
612 676 -17000 -574 259 101
556 684 -16952 -618 252 95
580 636 -16960 -534 255 85
472 664 -16948 -588 225 89
480 708 -16864 -566 257 80
480 716 -17008 -568 264 109
532 656 -16920 -619 277 76
496 704 -17100 -584 247 71
500 812 -16936 -565 259 94
612 816 -16956 -606 278 77
668 636 -16896 -593 276 80
612 680 -16932 -565 256 49
596 836 -16864 -595 237 68
576 644 -16860 -591 274 35
564 588 -16992 -587 226 64
588 744 -16984 -579 246 65
528 744 -16960 -552 229 65
472 560 -16988 -584 235 52
440 528 -16980 -591 250 96
476 764 -16856 -592 266 89
500 636 -16980 -553 246 126
400 580 -17108 -593 261 64
572 596 -16804 -576 248 56
376 684 -16864 -581 256 166
528 780 -16860 -589 278 68
544 664 -16948 -575 283 100
688 720 -17064 -562 231 110
540 872 -17032 -581 256 87
440 760 -16920 -560 227 125
464 736 -16864 -632 235 100
540 792 -16928 -591 269 103
648 748 -17040 -615 268 58
688 728 -17008 -572 241 31
544 668 -17012 -566 250 18
656 776 -16912 -596 227 46
564 608 -16924 -581 281 1
584 764 -16972 -592 296 64
596 852 -17040 -542 230 54
648 768 -16888 -582 219 94
516 724 -16992 -597 248 91
504 712 -16912 -622 244 127
540 664 -16896 -590 272 144
544 644 -16936 -590 257 99
512 604 -16988 -594 237 90
492 580 -16912 -559 230 101
412 660 -16896 -575 254 56
412 664 -16956 -583 280 68
500 620 -17024 -569 281 40
524 712 -16988 -592 301 56
600 688 -17016 -566 261 39
552 656 -16952 -619 262 60
524 700 -17012 -609 269 67
548 692 -16908 -600 266 53
644 616 -17008 -587 263 51
572 608 -16920 -536 263 35
564 632 -16844 -589 243 106
548 648 -16904 -594 240 100
544 640 -16952 -598 276 130
556 676 -16948 -592 247 85
520 780 -16988 -575 259 101
508 752 -16960 -577 225 135
536 720 -16920 -547 264 152
608 788 -17036 -573 226 99
572 716 -16896 -590 233 106
552 748 -16904 -613 260 82
584 820 -16944 -576 211 104
528 724 -16984 -587 220 65
488 760 -17056 -545 262 70
432 724 -17008 -558 248 29
500 652 -17040 -569 270 63
576 684 -16928 -554 271 75
552 744 -17032 -553 290 50
616 728 -16996 -512 246 64
524 712 -16916 -551 250 99
624 700 -16952 -590 244 24
564 608 -16912 -603 280 87
524 672 -16948 -579 241 65
580 648 -16896 -583 240 79
596 576 -16920 -572 223 69
576 608 -16912 -605 213 65
448 660 -16876 -585 240 85
492 696 -16904 -566 254 54
488 692 -16924 -606 265 140
500 704 -17072 -577 268 99
468 724 -16916 -616 255 97
524 736 -16892 -561 285 112
512 824 -16996 -560 260 101
544 760 -16996 -643 253 120
580 824 -16980 -625 243 105
572 808 -16916 -589 292 91
564 688 -17024 -604 281 40
560 752 -16880 -547 246 58
564 804 -16932 -596 256 42
612 704 -16916 -545 224 62
580 720 -16976 -562 254 41
632 660 -16936 -590 244 73
556 636 -16948 -543 251 84
556 664 -16928 -593 265 51
636 680 -16952 -595 239 108
564 644 -16924 -591 250 71
540 664 -16952 -630 236 104
524 644 -16876 -601 228 84
520 624 -17024 -590 234 77
532 688 -16944 -618 243 101
424 684 -16956 -557 255 105
444 640 -16912 -591 263 110
500 684 -17016 -596 240 106
432 748 -16888 -571 255 65
468 796 -16908 -590 253 106
476 740 -16968 -592 231 79
488 692 -16920 -598 273 80
492 772 -17080 -587 299 101
656 752 -17008 -576 269 79
584 728 -16936 -582 243 13
600 740 -17052 -584 217 22
572 736 -16884 -581 280 39
556 692 -16936 -609 241 66
588 708 -17004 -586 247 41
564 688 -16900 -567 226 68
528 664 -16972 -621 226 81
548 632 -16960 -573 246 48
500 576 -16988 -586 222 103
536 708 -16968 -598 249 135
444 728 -16908 -588 297 130
516 684 -16916 -570 249 107
544 728 -16936 -590 245 105
556 684 -16912 -583 224 102
504 716 -16944 -546 232 90
556 728 -16860 -606 267 86
564 772 -16988 -570 232 52
536 712 -16864 -563 245 33
528 720 -16988 -585 269 43
560 696 -16924 -553 221 44
488 672 -17024 -561 243 37
528 696 -17016 -579 246 55
580 684 -16896 -596 225 54
508 604 -16900 -602 219 89
524 756 -16908 -589 280 68
524 692 -16932 -585 256 125
552 676 -16860 -582 257 110
540 676 -16884 -565 223 94
568 700 -17008 -584 226 112
576 696 -16928 -613 230 111
452 700 -16916 -564 221 99
528 760 -17084 -573 244 94
540 672 -16912 -583 244 50
548 676 -16884 -587 249 53
524 648 -16968 -602 255 74
452 644 -16952 -586 246 72
488 624 -16888 -588 262 55
608 728 -16976 -557 273 63
520 692 -16912 -618 252 76
508 708 -16788 -605 249 65
484 692 -16916 -586 260 93
552 680 -16784 -587 286 80
640 756 -17012 -589 260 76
612 668 -16956 -579 235 65
532 724 -16888 -581 227 108
536 740 -16972 -575 255 84
600 736 -16936 -592 268 112
604 728 -17052 -624 268 103
524 748 -16976 -590 214 82
496 756 -16980 -594 280 87
448 672 -16996 -572 236 99
436 676 -16840 -571 278 80
452 756 -16884 -589 248 98
528 744 -16944 -563 273 42
568 744 -17008 -561 230 55
500 776 -16904 -595 257 69
556 720 -16880 -563 278 62
624 696 -17060 -589 283 50
644 720 -16932 -571 250 42
644 692 -16892 -576 255 39
636 608 -16952 -605 266 42
592 636 -17000 -596 242 42
528 640 -16924 -578 226 66
524 656 -16932 -597 245 100
580 676 -16948 -577 225 93
524 656 -16916 -584 234 92
504 748 -16896 -559 247 122
544 708 -16900 -572 252 114
540 736 -16968 -567 237 124
476 772 -16976 -601 234 131
536 788 -17028 -558 259 133
500 800 -17020 -607 250 83
536 764 -16972 -592 247 76
600 784 -16916 -581 257 85
612 748 -16916 -612 268 62
612 712 -16956 -571 253 29
592 700 -17016 -598 245 7
592 656 -17044 -548 240 -13
600 572 -16836 -565 256 -6
588 640 -17056 -598 230 35
624 632 -16980 -551 281 23
612 616 -17000 -597 248 65
604 652 -16844 -595 279 90
548 584 -17024 -581 232 85
540 624 -17012 -613 234 160
532 668 -16908 -558 277 127
512 672 -16932 -559 285 182
524 644 -16932 -565 255 150
464 652 -16984 -576 246 145
468 668 -16928 -567 252 147
500 728 -16980 -595 243 121
468 728 -17000 -586 237 96
524 740 -17064 -619 263 78
604 772 -17000 -560 262 77
616 776 -16916 -579 253 47
572 752 -16908 -568 234 52
568 740 -16980 -560 252 38
512 772 -16808 -560 257 20
572 756 -16988 -585 219 34
568 724 -16932 -551 225 32
584 672 -16984 -625 267 62
624 684 -16960 -614 289 99
536 692 -17012 -596 244 120
592 696 -16908 -588 233 129
564 672 -16944 -598 255 120
612 692 -16888 -597 235 83
488 668 -16924 -576 258 103
564 692 -17012 -586 256 100
524 756 -17028 -590 260 123
564 676 -16824 -593 219 103
488 708 -16952 -577 264 64
424 720 -16944 -577 244 27
500 704 -16832 -571 265 57
456 712 -16956 -602 266 32
504 660 -16952 -570 273 41
752 636 -16740 -614 265 37
232 548 -17140 -592 287 37
932 1000 -16784 -555 265 27
560 500 -17124 -552 231 53
756 640 -16992 -595 262 13
528 796 -16892 -565 242 74
660 772 -16972 -557 233 72
532 472 -16964 -540 206 139
548 612 -16928 -590 232 141
500 828 -17016 -574 217 141
388 660 -16896 -560 251 164
444 504 -16908 -595 266 130
452 1008 -16948 -571 253 125
480 884 -16996 -559 239 162
428 668 -16996 -535 259 129
476 756 -16960 -596 241 80
400 792 -16992 -611 269 102
572 756 -16924 -560 290 28
644 556 -17060 -575 258 25
676 684 -17008 -590 248 -2
536 840 -17004 -538 270 -47
576 608 -16904 -536 251 -41
648 616 -16848 -585 243 9
568 728 -17028 -576 240 21
620 808 -16892 -529 229 40
568 592 -16964 -611 242 83
512 620 -16816 -587 231 125
436 740 -16964 -589 244 163
584 676 -16948 -573 253 195
596 484 -16984 -585 276 144
624 624 -16924 -594 239 189
580 744 -16944 -588 243 156
460 656 -16972 -520 229 125
476 720 -16980 -575 246 125
660 876 -16916 -543 246 67
532 724 -16992 -576 201 55
492 720 -16844 -578 263 60
500 796 -16860 -555 284 67
464 780 -16936 -579 272 33
492 712 -16948 -607 258 46
516 644 -16984 -574 268 33
604 780 -16984 -551 260 36
604 708 -16932 -597 257 49
632 584 -17060 -614 270 49
664 712 -16936 -573 249 37
680 700 -16960 -563 235 27
544 604 -17016 -591 225 72
568 616 -17072 -604 236 69
504 596 -17056 -567 261 89
496 580 -17000 -598 267 108
452 500 -17028 -562 258 97
436 604 -16876 -586 248 123
312 668 -16940 -604 237 84
332 640 -16832 -593 245 94
400 632 -16904 -560 263 128
520 820 -16956 -584 273 114
520 868 -17056 -574 254 114
528 784 -16904 -581 262 152
392 816 -17084 -598 315 124
1096 920 -16864 -598 225 137
304 592 -17156 -574 290 49
1084 996 -16852 -580 246 53
576 632 -17036 -584 248 -8
680 704 -16932 -596 267 -10
624 660 -16960 -567 246 -40
704 660 -16928 -541 283 -2
656 648 -16888 -599 248 -12
564 552 -17040 -596 217 31
496 712 -16952 -600 255 63
560 600 -16876 -556 218 117
428 476 -17088 -589 270 90
584 736 -16940 -558 217 184
476 664 -17040 -551 236 215
388 620 -16952 -575 236 186
380 736 -16932 -574 206 212
240 728 -16876 -555 242 176
356 820 -16904 -570 232 150
436 696 -17028 -580 259 137
432 724 -17044 -607 268 121
516 860 -16952 -545 269 65
620 732 -16900 -575 313 -1
784 756 -16900 -568 273 -61
768 828 -16924 -554 286 -35
864 864 -16920 -543 273 -71
800 776 -16916 -601 239 -61
792 748 -16944 -606 247 0
652 764 -17044 -624 220 39
612 716 -16960 -589 249 65
532 660 -16832 -596 200 139
468 656 -16936 -613 212 167
368 668 -16980 -539 214 162
256 652 -16928 -589 260 175
288 660 -16924 -634 246 182
324 660 -16888 -578 253 163
360 696 -16680 -614 255 141
476 692 -16948 -577 304 133
336 696 -16988 -594 283 84
744 684 -16880 -567 315 -38
612 688 -17040 -560 285 -67
788 800 -17000 -576 287 -86
716 528 -17020 -609 273 -106
760 520 -16756 -602 256 -90
588 628 -16916 -546 255 -90
704 556 -16940 -571 243 -56
676 360 -17072 -589 202 -21
576 472 -16960 -631 261 54
368 384 -17028 -559 223 87
420 316 -16800 -591 258 142
276 452 -16976 -581 273 239
440 532 -16740 -595 296 252
516 508 -16908 -557 270 292
688 708 -16928 -578 273 334
512 816 -16984 -599 253 315
592 1024 -16864 -555 254 316
592 1016 -16936 -602 293 354
608 1040 -17008 -574 280 339
724 1176 -16996 -559 231 286
672 1188 -17020 -572 254 225
712 1172 -17008 -565 256 125
672 1068 -16976 -627 259 69
744 992 -16932 -586 219 -26
700 892 -16992 -566 235 -110
584 784 -16920 -572 232 -145
596 704 -16908 -597 246 -176
324 628 -17028 -611 246 -182
668 636 -16840 -585 276 -190
196 372 -17064 -586 265 -191
596 572 -16824 -551 257 -112
340 320 -16944 -558 196 -56
300 292 -16792 -574 251 10
472 456 -16892 -580 286 43
436 440 -16944 -587 300 126
624 532 -17156 -614 274 211
524 384 -16944 -601 234 228
468 616 -16828 -570 235 312
420 700 -16884 -565 227 339
372 520 -16864 -584 265 324
636 888 -17024 -574 242 365
692 964 -17024 -623 217 320
504 856 -16848 -620 273 235
592 952 -16792 -591 245 209
556 968 -16892 -595 295 106
792 1088 -17044 -568 262 55
776 908 -17000 -559 251 5
696 860 -17056 -582 209 -132
576 880 -16880 -603 227 -139
532 700 -16868 -605 284 -142
564 504 -16976 -572 263 -150
580 616 -17068 -559 239 -141
580 548 -17076 -566 203 -149
260 324 -17004 -597 232 -64
224 440 -16780 -607 257 -12
252 536 -16992 -522 292 73
464 444 -16892 -607 262 180
324 480 -16944 -608 227 229
376 688 -16852 -553 247 323
372 732 -16860 -555 230 334
428 596 -16948 -556 303 333
588 784 -17028 -589 295 313
744 860 -17080 -577 250 213
736 804 -16884 -561 236 128
716 848 -16988 -590 240 46
652 944 -16784 -596 269 -21
540 908 -17184 -547 272 -46
944 868 -16812 -586 242 -116
188 688 -17212 -567 239 -164
708 1020 -16932 -555 234 -91
416 628 -16940 -569 242 -28
544 524 -16816 -612 235 -14
404 680 -17012 -626 265 55
648 612 -17056 -583 314 64
676 508 -17016 -523 247 107
764 492 -16960 -566 251 93
796 668 -17036 -581 270 127
864 668 -16960 -559 274 143
796 580 -17120 -591 237 165
764 716 -16964 -608 202 188
616 780 -16932 -575 179 216
368 740 -16900 -572 181 200
264 692 -16908 -629 187 257
148 720 -16800 -589 235 206
52 792 -16972 -545 269 260
172 756 -16892 -566 297 199
352 688 -16816 -575 296 158
360 900 -16916 -578 282 73
472 904 -17044 -578 289 39
636 896 -17072 -566 322 -4
800 960 -17020 -547 311 -94
816 932 -16940 -550 294 -80
1028 924 -16968 -599 240 -76
828 800 -17008 -595 237 -71
824 704 -16900 -592 218 -69
676 652 -16912 -590 216 -43
596 476 -16984 -601 256 -94
468 436 -17052 -577 232 -64
736 352 -16820 -541 198 -75
140 148 -16932 -605 254 -58
300 452 -16800 -561 276 19
252 400 -16964 -593 256 105
320 392 -16976 -578 316 203
496 612 -16888 -608 281 286
380 708 -17020 -607 281 311
612 864 -17044 -565 268 426
448 756 -16960 -556 252 422
668 928 -16948 -574 283 399
744 1012 -17112 -596 249 328
700 864 -16956 -571 244 278
616 868 -17060 -608 221 193
588 1060 -16876 -593 245 54
464 932 -17004 -548 227 -47
448 856 -16880 -559 258 -141
388 828 -16848 -550 284 -146
380 908 -16912 -546 284 -203
516 740 -16948 -539 304 -187
520 660 -16932 -555 285 -125
656 656 -16972 -596 238 -101
716 560 -17044 -591 250 -48
752 500 -16920 -545 265 -70
700 480 -17012 -579 240 -20
672 456 -16876 -642 277 18
660 412 -17068 -579 246 20
604 404 -16892 -572 258 48
524 464 -16900 -599 237 101
316 544 -17036 -594 260 196
556 624 -16868 -581 231 289
212 456 -16972 -567 241 313
400 724 -16940 -586 256 395
448 804 -16968 -600 246 413
400 784 -16936 -544 232 425
420 800 -16980 -610 262 364
572 952 -17028 -609 239 315
676 964 -16960 -587 230 194
660 924 -16932 -567 291 92
684 968 -16988 -551 258 -8
756 1144 -17032 -564 297 -99
684 944 -16948 -562 268 -216
628 900 -17024 -594 260 -199
648 884 -16944 -570 254 -195
616 676 -16960 -612 230 -167
584 604 -17000 -576 246 -140
556 456 -17044 -614 253 -115
488 544 -16884 -589 237 -63
440 444 -16884 -578 250 -5
432 300 -16796 -575 262 88
412 356 -17000 -558 238 90
456 468 -16888 -590 293 194
500 488 -17048 -546 254 246
452 584 -16964 -620 246 314
524 732 -16988 -563 276 318
576 684 -16968 -542 288 333
600 752 -16920 -614 220 366
560 852 -17008 -584 227 248
656 884 -16972 -614 233 208
624 860 -16868 -580 255 146
628 852 -16864 -605 267 95
660 884 -16952 -550 242 -4
584 872 -16996 -578 249 -68
552 792 -16912 -563 256 -128
496 764 -16984 -572 260 -129
500 848 -17008 -559 231 -107
564 772 -16944 -579 232 -95
516 652 -17012 -547 239 -55
520 696 -17088 -558 275 30
524 700 -16936 -604 245 76
520 620 -16860 -567 236 124
620 560 -16968 -600 254 126
652 612 -16896 -580 218 206
612 644 -17048 -596 204 174
636 592 -16876 -589 254 209
516 692 -16996 -635 230 209
584 716 -17016 -578 238 232
508 748 -16900 -610 240 124
528 816 -16960 -595 233 127
540 792 -16940 -607 237 103
520 804 -17024 -595 273 62
504 724 -16948 -561 247 24
544 704 -16996 -571 238 -11
564 708 -16984 -582 273 -57
476 608 -16908 -557 244 -28
572 636 -16944 -571 253 -41
452 632 -16952 -543 281 -5
488 668 -16888 -609 274 56
496 688 -16848 -583 245 68
524 616 -16984 -564 289 104
500 652 -16884 -588 277 131
520 764 -17016 -566 296 157
564 648 -16912 -602 270 186
564 704 -16940 -575 266 162
640 700 -16900 -577 241 173
668 764 -16936 -571 268 122
628 768 -16852 -608 249 94
616 792 -16892 -533 232 108
588 772 -16936 -571 247 58
556 824 -16860 -605 261 67
524 764 -16892 -523 237 9
492 688 -16956 -596 234 8
500 696 -16892 -595 256 9
448 708 -16912 -561 247 50
496 648 -16940 -602 247 30
460 640 -16976 -573 286 42
524 640 -16872 -600 273 66
496 648 -16960 -567 257 87
480 616 -16940 -581 282 92
524 672 -16940 -576 274 72
544 672 -16968 -564 258 78
588 648 -17068 -546 246 108
608 736 -17000 -561 245 107
612 640 -16968 -580 247 98
628 728 -16968 -598 240 96
608 664 -16984 -577 253 58
544 728 -16896 -530 254 91
540 756 -16980 -571 227 71
536 680 -16908 -529 258 21
560 736 -16912 -601 249 44
568 700 -17000 -590 252 68
584 752 -16980 -606 252 66
612 676 -17024 -572 267 55
540 640 -16896 -570 260 65
528 716 -16908 -612 266 63
488 676 -16812 -578 259 88
584 708 -17000 -598 282 89
508 632 -16860 -585 257 113
604 704 -16956 -605 237 111
492 728 -17036 -576 281 101
524 648 -16820 -539 254 97
528 684 -16964 -570 245 99
532 660 -16948 -537 268 49
584 692 -16792 -590 217 95
464 660 -16868 -579 259 84
464 688 -16868 -595 252 62
524 688 -16880 -584 285 85
556 760 -16908 -563 259 83
452 736 -16868 -595 260 111
556 732 -16924 -552 233 106
532 724 -16964 -578 245 91
600 660 -16964 -579 227 118
536 732 -16924 -591 233 96
504 728 -16876 -563 253 108
468 748 -16952 -573 238 65
508 772 -16932 -571 250 82
472 724 -16856 -592 264 86
496 704 -16952 -599 241 102
568 704 -17020 -569 271 52
568 748 -16932 -575 253 77
564 676 -17092 -565 260 85
604 768 -17128 -607 236 72
564 716 -16984 -599 301 59
560 708 -16972 -627 259 79
560 692 -16964 -529 240 51
560 704 -16996 -565 279 99
536 620 -16932 -570 217 101
580 680 -16896 -586 245 70
504 724 -16868 -554 257 107
508 708 -16936 -583 225 49
544 696 -16972 -579 254 82
540 684 -16964 -573 240 97
572 736 -16908 -558 235 86
560 716 -17000 -557 248 97
532 764 -16988 -588 252 71
512 720 -16884 -580 241 72
532 676 -16912 -597 253 62
624 684 -16964 -561 249 76
552 716 -16972 -617 271 54
476 700 -16936 -627 247 56
520 672 -16940 -549 205 85
524 628 -16908 -597 234 82
512 704 -16928 -585 226 52
456 724 -16960 -545 226 60
496 684 -16868 -578 222 62
552 780 -16964 -596 252 103
524 648 -16984 -584 244 133
604 672 -16944 -556 264 128
608 712 -17004 -557 273 130
576 728 -16880 -559 266 66
588 688 -16904 -586 254 105
592 752 -17032 -570 240 59
564 724 -17032 -561 260 45
576 728 -16900 -640 242 69
564 720 -16956 -598 266 76
528 680 -16916 -589 272 74
464 792 -16892 -591 247 71
472 740 -17008 -568 279 78
528 668 -16972 -610 285 115
548 692 -16976 -588 213 118
544 704 -16768 -582 229 63
528 616 -16908 -540 223 58
596 712 -16796 -594 263 128
516 660 -17060 -578 256 50
572 668 -16952 -590 253 88
544 688 -16900 -588 268 101
516 728 -16968 -571 229 58
492 656 -16996 -578 269 96
576 684 -16868 -592 254 64
496 672 -16960 -541 274 58
584 700 -16956 -581 239 79
600 748 -16996 -601 270 138
588 688 -16904 -534 236 69
600 708 -16936 -577 252 85
500 800 -16892 -581 257 108
520 676 -16932 -588 239 77
556 668 -16832 -601 208 83
552 736 -17036 -614 231 114
516 696 -16956 -602 272 90
524 728 -16872 -611 249 114
548 696 -17032 -601 257 103
580 652 -16936 -600 232 104
608 676 -16904 -608 218 76
508 660 -16924 -567 233 78
572 716 -16916 -602 260 60
572 692 -17012 -615 234 31
532 688 -16992 -561 267 33
572 616 -16884 -587 289 57
608 688 -16896 -569 289 110
544 748 -16984 -576 228 88
584 668 -16840 -574 235 63
624 696 -16908 -570 256 65
632 668 -16952 -573 259 57
536 752 -16912 -574 238 84
568 692 -16880 -569 266 102
460 708 -16928 -588 242 91
496 748 -16972 -580 263 100
472 648 -17004 -584 278 78
512 732 -16912 -572 286 83
584 700 -16892 -591 263 85
532 696 -16916 -598 259 89
528 716 -17020 -553 251 69
548 720 -17072 -579 251 5
560 732 -16944 -601 262 72
544 684 -16920 -541 271 27
544 748 -17048 -597 258 64
592 688 -16892 -582 244 77
608 672 -16972 -575 249 105
536 684 -16984 -575 239 84
548 656 -16896 -596 227 121
496 704 -16980 -551 228 87
548 684 -16860 -539 236 138
516 680 -16868 -594 265 101
468 664 -16968 -619 220 88
388 684 -16924 -603 254 75
400 692 -16888 -601 249 101
476 696 -16964 -548 259 69
448 668 -16976 -578 225 59
576 736 -16952 -582 306 59
580 700 -16924 -575 237 55
588 592 -16952 -573 272 24
604 636 -16864 -574 273 73
620 708 -16948 -578 267 46
644 764 -16888 -582 272 76
608 768 -16940 -576 260 71
672 804 -16960 -598 258 108
580 816 -16852 -605 265 116
656 836 -17016 -569 272 76
612 856 -16936 -583 242 118
688 872 -17000 -597 247 123
700 864 -16968 -576 261 169
648 872 -16964 -583 277 117
612 872 -16844 -625 245 105
548 868 -16956 -560 256 76
504 768 -16924 -577 224 78
536 820 -17040 -586 225 47
544 704 -16968 -590 248 -16
408 708 -16936 -629 235 -13
424 636 -16780 -595 234 -39
348 652 -16964 -582 296 -50
628 732 -16972 -556 291 -56
664 592 -17016 -567 249 -32
620 424 -16872 -616 257 -29
256 508 -16972 -630 249 6
656 840 -16968 -591 307 14
920 512 -16880 -573 227 62
508 260 -17100 -595 180 62
456 468 -16836 -602 178 44
160 372 -16864 -555 228 104
344 316 -16828 -570 241 117
140 428 -17164 -578 245 107
532 676 -16972 -568 238 121
304 472 -16984 -538 212 208
128 416 -16736 -546 229 188
60 712 -16740 -582 308 268
444 880 -16880 -563 291 282
448 812 -17072 -584 273 262
792 900 -16964 -612 235 204
428 964 -16960 -589 258 155
876 1184 -16760 -524 297 151
724 736 -16976 -591 273 96
1024 1036 -16948 -610 335 25
916 1220 -17148 -565 249 -7
900 920 -17048 -581 220 -47
800 728 -16976 -577 193 -56
616 904 -16908 -565 201 -16
436 912 -16744 -594 226 -29
376 532 -16916 -574 243 21
496 552 -16900 -615 232 40
452 616 -17040 -587 260 26
432 496 -16992 -568 220 25
344 276 -16816 -613 214 42
384 472 -16888 -563 291 49
480 588 -16952 -563 278 64
648 596 -17076 -549 295 54
636 544 -17068 -594 265 130
700 812 -17088 -608 260 141
544 772 -16828 -597 241 152
636 696 -16864 -586 256 204
584 760 -16900 -621 234 160
712 920 -17188 -608 234 163
784 668 -17056 -527 207 128
340 440 -16888 -589 175 125
380 628 -16764 -588 235 49
316 696 -16880 -557 262 19
492 504 -16984 -570 270 -24
388 480 -17060 -614 277 6
444 844 -16940 -563 188 27
316 780 -16764 -577 253 93
260 516 -16780 -594 303 125
472 848 -16988 -592 306 149
592 884 -17080 -587 248 171
620 688 -16952 -569 233 189
648 700 -17108 -574 255 180
628 784 -16896 -575 244 116
780 796 -16772 -612 239 92
540 600 -17104 -588 261 33
808 840 -16972 -600 258 29
492 932 -17032 -549 201 2
556 700 -17012 -584 214 37
468 652 -16936 -592 222 -8
432 660 -16820 -588 243 37
464 696 -16880 -562 258 55
500 548 -16964 -581 274 54
600 640 -17040 -608 251 58
604 716 -17044 -584 224 3
592 560 -16924 -568 223 35
632 548 -16868 -575 251 61
552 752 -16884 -571 260 90
696 820 -16888 -593 270 96
616 612 -16996 -567 224 155
512 760 -16904 -633 236 126
444 888 -17000 -588 248 158
684 812 -16912 -536 237 148
436 496 -17072 -580 226 193
596 688 -16928 -601 273 132
560 912 -16932 -567 257 54
572 636 -16960 -556 218 60
412 548 -16884 -600 222 32
476 880 -16900 -550 248 17
380 896 -16928 -546 246 77
376 500 -16952 -590 250 55
416 644 -16980 -599 242 65
500 816 -16952 -572 271 98
508 628 -17028 -594 248 86
464 572 -16968 -614 242 98
456 744 -16980 -631 265 79
592 824 -16964 -554 303 73
612 660 -17064 -553 253 69
804 640 -16940 -586 236 82
360 772 -16988 -579 242 96
716 852 -16764 -582 256 84
520 708 -17044 -586 276 103
780 756 -16872 -613 251 98
608 784 -17052 -564 203 130
672 736 -16880 -588 233 89
408 620 -16748 -563 235 86
408 640 -16716 -585 266 72
552 792 -17036 -574 285 97
548 608 -17056 -574 244 22
544 636 -17012 -590 234 8
520 840 -16792 -616 265 47
500 792 -16852 -547 268 45
244 616 -17092 -565 285 110
980 828 -16900 -609 278 51
320 664 -17196 -575 258 115
928 904 -16920 -523 236 102
396 408 -16972 -578 217 57
612 684 -16744 -579 262 120
528 812 -16872 -567 245 82
684 620 -16928 -566 226 74
520 496 -17140 -591 219 84
488 768 -16804 -587 234 73
204 756 -16900 -553 235 90
280 576 -16744 -586 292 125
308 584 -16932 -594 303 136
580 860 -16956 -557 262 137
516 660 -16984 -568 251 145
464 520 -16984 -579 265 99
480 808 -16908 -645 268 55
560 852 -16904 -579 279 69
752 700 -17032 -563 284 29
752 728 -17024 -582 254 15
552 956 -17064 -553 237 20
704 904 -16808 -608 217 81
336 644 -17084 -572 288 66
796 848 -16828 -597 241 110
468 712 -17020 -566 242 52
680 740 -16888 -608 248 121
412 616 -17008 -583 226 120
584 596 -16896 -581 255 84
468 624 -16932 -552 262 104
516 652 -16904 -590 260 94
412 572 -16992 -563 241 47
484 616 -16840 -578 273 63
468 732 -16904 -570 311 105
760 688 -16980 -558 262 32
732 568 -16988 -592 252 62
352 688 -16932 -594 251 48
600 840 -16912 -489 267 54
756 560 -16912 -549 207 40
564 652 -16924 -593 226 128
412 672 -16880 -596 235 107
504 684 -16868 -544 263 89
580 628 -16904 -572 237 84
444 564 -16948 -596 256 119
536 764 -16932 -601 261 80
516 536 -16900 -568 219 76
384 504 -16920 -613 240 86
440 828 -16972 -600 266 88
636 672 -16940 -584 226 62
512 652 -16956 -581 251 75
604 696 -16828 -596 257 98
484 840 -16912 -571 265 88
740 820 -16892 -591 254 101
772 764 -17072 -587 256 101
788 952 -17028 -603 229 104
572 860 -17016 -587 244 107
612 840 -17060 -551 248 87
556 716 -17004 -593 235 67
452 872 -16940 -588 263 125
596 776 -16860 -571 232 62
404 544 -16916 -551 248 62
692 704 -16916 -588 180 41
200 452 -16864 -576 261 31
476 724 -16888 -575 288 41
380 572 -16956 -613 296 36
568 692 -17060 -539 262 40
548 624 -17108 -584 233 76
572 552 -16856 -596 205 9
416 660 -16884 -593 249 109
504 600 -16940 -607 317 77
748 728 -17044 -586 267 84
740 740 -17156 -544 226 102
672 776 -16984 -569 215 99
496 728 -16912 -598 207 132
408 780 -16736 -564 261 173
508 860 -16904 -581 270 171
644 924 -17068 -567 268 184
612 840 -17012 -551 219 170
456 828 -16872 -613 215 160
336 780 -16732 -564 253 134
456 756 -16952 -561 329 88
608 708 -17012 -591 272 57
616 688 -16996 -601 248 -8
568 680 -16888 -539 237 -52
420 668 -16848 -533 233 -63
356 616 -16864 -566 279 -95
516 528 -16940 -552 274 -45
568 616 -17044 -552 257 7
560 600 -17024 -550 259 21
464 548 -16864 -610 248 101
436 528 -16780 -590 234 106
416 524 -16864 -570 224 107
552 576 -17064 -595 259 175
600 576 -17204 -590 228 110
568 604 -17004 -606 230 121
464 652 -16896 -587 261 176
512 716 -16828 -573 271 115
592 704 -17028 -569 264 178
564 720 -16924 -593 249 146
532 780 -16928 -581 248 90
596 804 -16684 -590 256 125
72 880 -17220 -566 301 119
1472 1060 -16916 -538 257 76
296 60 -16916 -578 188 -4
540 872 -16776 -626 274 -26
584 924 -16728 -551 283 -39
696 532 -16884 -566 310 23
736 568 -17180 -609 224 30
768 848 -17160 -592 189 38
416 904 -16824 -551 178 77
132 636 -16696 -616 242 185
172 880 -17036 -605 305 253
556 1180 -17028 -526 274 288
380 868 -17084 -536 179 324
316 684 -16988 -574 180 308
216 928 -16676 -593 251 253
204 836 -16636 -589 327 175
616 732 -16888 -569 300 45
808 584 -17144 -612 307 -73
892 820 -16952 -547 209 -163
624 760 -16888 -594 251 -237
544 516 -16764 -593 320 -272
700 652 -16972 -568 339 -293
796 804 -17160 -519 305 -213
1232 580 -17064 -538 176 -176
596 244 -17100 -600 163 -81
496 612 -16652 -581 213 -22
356 412 -16888 -572 246 77
584 232 -16860 -589 309 121
636 240 -17104 -572 233 177
556 588 -16884 -591 178 225
260 568 -16924 -555 167 349
88 432 -16920 -570 273 444
276 752 -16872 -563 310 476
452 920 -17020 -570 272 510
512 876 -17176 -569 232 435
524 888 -16868 -610 213 373
468 1056 -16720 -579 271 231
608 1068 -16824 -572 309 102
848 980 -17100 -560 264 -26
880 928 -17088 -548 219 -149
772 1028 -17028 -550 213 -227
508 800 -16828 -559 249 -323
436 784 -16888 -570 318 -296
504 732 -16932 -557 326 -290
644 636 -16928 -547 274 -229
576 592 -17064 -586 238 -186
564 480 -16764 -615 211 -75
524 552 -16808 -552 259 -2
564 460 -16884 -576 301 81
608 416 -16948 -598 284 103
776 512 -17032 -596 268 170
644 472 -17072 -598 213 210
528 584 -16872 -597 263 258
324 592 -16896 -602 284 329
464 764 -16952 -596 275 392
460 888 -17104 -594 247 393
600 852 -16968 -604 206 366
360 904 -16944 -573 221 335
440 1072 -16796 -602 252 239
360 868 -16836 -589 275 157
676 784 -16864 -597 274 31
600 920 -16892 -615 267 -111
756 864 -16964 -600 244 -168
480 516 -16836 -553 255 -284
508 544 -16924 -579 248 -293
536 532 -16940 -555 243 -318
548 464 -16932 -554 250 -287
496 400 -17068 -606 245 -243
436 420 -16976 -563 232 -142
396 440 -16832 -587 280 -91
472 380 -16912 -561 298 42
512 432 -16888 -613 272 147
652 552 -16888 -567 237 223
492 612 -16944 -584 251 353
504 688 -16808 -568 253 472
520 776 -16924 -576 289 534
648 852 -16908 -572 284 574
768 892 -16960 -616 231 549
676 996 -16920 -586 230 488
652 1088 -16992 -596 215 360
628 1156 -16772 -589 260 316
708 1008 -16888 -559 234 149
740 1096 -17068 -572 297 -35
704 1052 -16952 -580 197 -104
480 924 -16932 -591 212 -278
308 716 -16884 -581 252 -323
328 692 -16976 -559 260 -348
428 408 -16904 -597 281 -382
340 356 -16928 -593 248 -370
364 400 -16920 -577 246 -253
232 268 -16972 -591 272 -221
344 280 -16900 -574 251 -138
396 256 -16976 -567 289 -27
540 352 -16964 -571 297 106
552 316 -16964 -561 259 218
632 456 -16928 -599 301 237
624 668 -16888 -580 304 336
840 668 -16924 -565 259 398
836 764 -16976 -587 235 466
864 800 -16956 -556 251 467
724 952 -17012 -615 216 501
784 1044 -17036 -582 238 454
756 1064 -16992 -563 176 489
604 1044 -16888 -589 202 388
436 1184 -16820 -566 204 270
304 1132 -16712 -629 244 187
572 964 -16824 -597 238 47
348 968 -17092 -600 295 -66
680 1168 -17024 -534 245 -154
368 736 -17016 -558 242 -236
348 540 -16824 -563 266 -263
296 756 -16924 -599 280 -268
360 636 -16900 -518 319 -272
396 408 -17028 -542 279 -224
492 404 -17044 -640 234 -180
464 616 -17020 -566 226 -114
416 516 -16884 -577 250 -15
444 360 -16864 -574 292 14
764 488 -16952 -566 308 83
812 480 -17032 -578 285 131
672 448 -17104 -569 270 123
896 432 -16928 -577 198 182
472 528 -16924 -566 240 193
656 660 -16808 -571 271 299
628 608 -16996 -561 265 253
796 616 -16980 -591 208 286
540 748 -17140 -594 180 306
304 940 -16980 -572 194 349
304 804 -16848 -594 213 373
284 788 -16880 -597 247 312
416 992 -16964 -603 279 253
596 940 -16996 -544 215 213
512 844 -16980 -595 233 99
412 900 -16912 -592 266 -15
500 944 -16876 -540 314 -58
632 856 -16896 -590 299 -124
724 768 -17028 -569 283 -245
720 828 -17088 -589 213 -232
660 796 -16888 -569 226 -236
596 636 -16844 -615 249 -159
500 584 -16928 -585 283 -101
468 644 -17064 -582 275 -20
560 476 -17064 -561 259 6
532 408 -16860 -590 237 84
400 540 -16836 -593 225 121
428 512 -16808 -579 280 167
500 512 -17024 -546 241 209
608 544 -16948 -558 264 260
632 728 -16992 -586 245 247
648 756 -17012 -589 258 281
636 748 -17016 -582 254 238
680 788 -17004 -594 261 239
720 884 -16896 -574 233 191
532 828 -16904 -575 260 159
692 928 -16988 -548 228 72
512 764 -16888 -584 232 49
424 804 -16980 -613 243 17
548 732 -16780 -583 218 -63
-60 644 -17036 -611 279 -30
620 932 -16852 -557 281 -35
376 556 -17048 -553 240 -34
504 684 -16904 -582 250 61
412 720 -16924 -604 254 39
460 792 -16792 -593 286 119
548 644 -16976 -568 263 141
668 636 -17024 -562 255 60
724 692 -17196 -587 198 112
764 780 -17036 -554 229 70
548 472 -16960 -604 240 103
640 664 -16884 -585 250 96
556 744 -16920 -549 241 85
636 636 -17004 -586 232 54
620 652 -16888 -552 213 82
420 668 -16948 -580 214 45
400 696 -16872 -573 244 93
372 656 -16916 -573 294 43
444 604 -16904 -565 253 94
408 688 -17008 -554 226 93
376 648 -17012 -612 218 100
448 636 -16900 -565 264 86
404 744 -16888 -594 251 82
584 652 -17012 -577 264 64
672 704 -17040 -560 308 62
660 720 -16960 -603 246 50
624 828 -17024 -581 243 92
764 884 -16896 -607 265 68
728 724 -17024 -577 272 83
772 796 -16996 -605 269 57
872 868 -16960 -560 232 62
680 612 -16920 -582 201 31
668 564 -16904 -610 271 25
560 632 -16988 -591 230 28
544 676 -16956 -531 210 59
516 480 -16980 -597 220 77
460 548 -16952 -551 229 83
392 604 -16952 -545 243 115
352 604 -16820 -566 257 172
304 508 -16952 -597 282 177
532 688 -16852 -570 242 161
292 692 -17048 -591 290 154
492 772 -16828 -571 289 165
520 820 -17100 -544 304 141
960 820 -16920 -546 227 146
516 616 -16888 -570 245 120
636 940 -16824 -583 260 134
388 1064 -17092 -598 250 128
844 908 -17092 -562 259 91
732 744 -17020 -580 216 55
592 1048 -17020 -604 193 74
428 772 -16752 -572 196 63
316 536 -16888 -600 278 50
500 764 -17068 -589 265 2
648 692 -17064 -567 236 18
552 524 -17032 -590 210 -32
320 576 -16868 -576 234 -10
108 720 -16848 -562 304 -38
324 708 -16844 -560 328 41
468 572 -17104 -575 303 78
644 672 -17076 -609 262 104
652 700 -16932 -591 230 93
524 596 -16804 -562 261 108
492 500 -16948 -590 294 71
716 616 -17068 -635 291 71
808 564 -17104 -558 282 14
820 544 -17068 -561 232 4
556 500 -16944 -566 207 -29
448 620 -16764 -585 270 2
492 680 -16796 -557 290 50
608 584 -16912 -601 264 143
452 664 -17072 -606 242 161
648 972 -16988 -600 209 235
296 684 -16908 -594 180 257
292 760 -16888 -628 216 328
376 892 -16916 -586 275 325
456 884 -17000 -600 252 286
576 908 -16964 -586 221 236
408 796 -16992 -617 242 196
396 996 -16832 -579 271 101
488 772 -16936 -586 310 45
652 812 -17028 -581 305 -66
788 972 -16984 -566 263 -143
792 852 -17068 -549 275 -190
760 824 -16936 -571 281 -175
760 776 -16944 -605 229 -167
628 764 -17032 -589 266 -169
684 608 -17028 -570 234 -130
612 400 -17100 -599 212 -110
520 396 -16896 -608 210 -33
432 360 -16936 -575 202 19
376 360 -16852 -585 233 77
388 332 -16948 -608 275 118
312 412 -16952 -601 254 149
428 444 -16924 -566 240 226
440 500 -16828 -601 293 311
448 608 -17012 -599 244 339
432 752 -17028 -599 253 374
460 840 -17068 -603 284 378
548 844 -16956 -590 260 385
564 988 -16964 -583 260 315
648 976 -16972 -570 267 220
616 936 -16988 -608 251 145
716 976 -16872 -596 258 43
656 932 -16904 -563 263 -52
648 904 -16972 -608 273 -175
640 840 -17028 -604 238 -223
600 828 -17024 -534 265 -203
588 816 -16956 -600 222 -225
608 696 -16988 -616 240 -162
532 612 -17052 -588 247 -61
528 616 -16848 -599 236 -5
528 560 -17004 -586 239 22
468 496 -17076 -563 253 98
524 520 -17076 -599 225 137
540 492 -16972 -608 223 183
488 508 -17000 -594 243 249
492 564 -16952 -580 257 255
520 588 -16956 -558 233 275
612 656 -16976 -557 259 245
512 712 -16872 -566 230 200
580 820 -16932 -582 246 185
532 796 -16956 -570 275 157
504 792 -17004 -581 274 113
576 740 -17008 -617 221 105
520 772 -16892 -606 242 18
516 772 -16988 -573 247 5
504 788 -16968 -556 250 -44
520 752 -16968 -547 263 -8
544 792 -16992 -553 293 -1
524 660 -17000 -574 275 -20
564 696 -16888 -585 252 -6
532 612 -16968 -585 255 30
548 696 -16968 -604 259 74
572 572 -16912 -549 265 87
512 656 -16960 -571 235 101
552 632 -16964 -581 267 138
584 668 -16972 -594 262 149
540 640 -16940 -589 248 151
572 660 -16980 -628 256 128
508 708 -17072 -598 262 137
556 772 -16940 -598 255 167
580 744 -17092 -550 242 141
508 764 -16960 -530 244 113
496 840 -17004 -571 239 127
532 820 -16928 -585 249 95
528 808 -16992 -635 255 119
540 732 -16892 -570 281 71
504 756 -16872 -601 253 51
576 752 -16952 -603 225 80
580 748 -16840 -570 283 20
568 700 -16936 -564 254 -40
684 636 -16896 -587 229 5
680 644 -16916 -565 237 -20
544 620 -16880 -605 222 16
568 548 -16960 -556 274 42
612 628 -16964 -545 256 56
536 656 -16972 -608 260 50
584 636 -17000 -611 267 113
444 548 -16972 -555 241 153
444 656 -16932 -553 235 205
488 604 -16988 -581 239 169
440 720 -17020 -610 267 269
428 716 -16904 -600 235 240
436 768 -16908 -587 257 239
532 792 -16928 -596 223 215
468 836 -17000 -557 283 151
632 840 -16960 -629 269 86
620 880 -16932 -587 263 24
612 840 -16964 -563 297 13
624 864 -17004 -590 264 -49
644 832 -16892 -608 242 -98
644 728 -16960 -556 262 -66
564 752 -16916 -570 215 -101
596 652 -16900 -595 248 -94
548 580 -16984 -579 256 -42
508 540 -17056 -580 224 -17
464 608 -17004 -571 254 68
436 508 -16920 -600 239 94
416 516 -16984 -570 273 159
440 600 -16936 -546 195 154
460 632 -16980 -567 258 212
524 652 -16848 -591 271 234
552 732 -16880 -593 263 272
652 796 -16916 -589 230 241
632 764 -16960 -551 238 198
652 808 -16960 -536 267 152
588 820 -16948 -591 252 80
608 776 -17040 -615 253 32
536 860 -16980 -605 254 48
596 760 -16932 -587 266 -6
532 748 -16800 -615 245 -28
472 732 -16952 -596 251 -53
488 720 -16876 -563 250 -54
544 680 -17004 -588 275 -37
540 668 -17064 -571 258 -41
492 564 -16928 -630 281 44
572 616 -16936 -582 253 49
540 596 -16952 -572 266 65
552 544 -16984 -594 268 109
536 628 -16924 -633 241 127
596 636 -16996 -530 242 169
592 616 -16876 -574 272 174
568 684 -17000 -587 253 139
532 712 -16936 -594 232 201
552 696 -16984 -583 253 146
552 744 -16948 -604 239 128
572 712 -16976 -589 257 72
584 768 -16880 -600 249 101
556 720 -16932 -566 258 53
500 788 -16948 -587 261 86
536 768 -16976 -572 255 21
516 672 -17024 -571 268 22
504 700 -16888 -590 250 34
508 728 -16868 -589 244 47
460 700 -16908 -573 244 34
480 744 -17000 -631 244 20
584 676 -16868 -555 251 78
580 620 -17008 -560 208 98
472 652 -17060 -556 222 114
536 644 -16956 -581 214 111
596 680 -16972 -583 260 125
560 732 -16908 -568 221 112
580 768 -16836 -595 269 136
516 704 -17012 -623 232 90
532 712 -16976 -621 286 106
564 708 -17060 -597 239 98
532 700 -16968 -615 260 64
564 688 -16968 -602 226 59
540 720 -16952 -594 254 10
508 708 -16988 -530 239 47
540 668 -16908 -606 260 35
584 720 -16924 -614 241 40
544 644 -16924 -585 267 47
552 536 -17012 -587 241 64
536 628 -16996 -531 247 70
504 596 -16944 -572 274 78
556 644 -16992 -552 232 71
540 620 -16956 -546 269 72
596 676 -16956 -548 252 116
568 692 -16996 -586 262 102
564 732 -16892 -569 250 112
568 708 -16904 -565 259 95
528 700 -16880 -588 308 118
552 776 -16932 -589 249 108
536 764 -17084 -589 243 115
584 772 -16936 -585 241 108
544 768 -16812 -572 253 75
564 740 -17028 -613 261 64
472 760 -17036 -577 219 64
480 716 -16972 -585 236 55
508 752 -16988 -573 245 52
488 752 -16840 -579 239 20
496 708 -16960 -548 242 60
516 672 -16824 -558 233 57
532 676 -16896 -553 235 86
544 664 -16960 -581 232 84
652 712 -17004 -561 255 64
556 668 -16924 -593 260 74
572 704 -16844 -600 238 87
616 724 -16944 -565 253 102
560 660 -16920 -582 262 90
612 740 -17024 -590 266 132
560 732 -17052 -581 258 62
532 620 -16868 -602 238 106
512 672 -16924 -593 238 73
552 684 -16956 -529 232 88
508 752 -17104 -558 221 70
492 720 -16928 -576 280 74
540 628 -17064 -622 242 91
492 628 -16956 -591 249 68
524 676 -17080 -579 227 63
476 712 -16928 -620 258 86
540 656 -16988 -601 268 77
532 672 -16976 -569 266 85
544 676 -16920 -590 234 91
524 724 -16864 -620 268 84
576 716 -16972 -600 239 53
580 696 -16952 -573 244 66
580 664 -16948 -567 246 75
520 776 -16928 -577 231 88
560 584 -16960 -611 232 90
528 652 -16972 -581 239 72
508 576 -16964 -599 242 36
424 596 -16992 -594 239 22
388 552 -16852 -568 229 100
308 640 -16944 -578 266 26
508 716 -17064 -588 279 32
460 664 -16988 -597 289 38
484 728 -16956 -565 290 131
532 760 -16984 -517 272 154
644 852 -16976 -608 283 145
668 852 -17088 -592 232 182
748 860 -16916 -576 232 164
832 848 -16960 -602 236 167
724 804 -16936 -606 228 99
632 776 -16960 -538 214 55
680 756 -16908 -604 243 81
532 728 -16940 -625 218 21
460 756 -16984 -583 228 -10
316 744 -16928 -623 224 35
300 708 -16996 -580 294 28
344 684 -16964 -615 278 46
448 604 -16900 -572 276 63
468 588 -16932 -597 277 62
532 620 -16904 -610 282 48
552 652 -17004 -581 259 43
644 608 -16996 -595 265 46
596 684 -16868 -548 240 32
696 692 -16924 -598 237 29
724 596 -17012 -628 235 26
652 660 -16968 -584 250 42
600 700 -17000 -552 245 56
436 636 -16924 -585 230 87
480 696 -16928 -584 234 117
452 688 -16960 -606 244 144
424 668 -16988 -591 248 164
468 696 -16948 -599 254 186
456 764 -16980 -553 271 194
532 780 -16980 -564 241 152
592 716 -16804 -580 257 163
584 876 -17052 -567 242 106
680 788 -16972 -582 248 64
672 860 -16936 -555 256 20
648 816 -16848 -610 257 0
636 800 -16984 -590 253 -15
600 764 -17048 -580 256 -5
496 724 -16904 -614 261 -60
440 704 -17084 -597 258 -13
428 600 -16928 -606 244 6
468 600 -16892 -575 266 33
412 644 -16968 -580 242 19
456 572 -16972 -563 256 73
564 612 -16976 -554 251 100
564 616 -16992 -565 242 118
544 604 -16952 -598 252 151
588 712 -16896 -585 270 132
600 696 -16960 -621 235 196
568 696 -16940 -609 259 153
616 704 -16888 -567 238 153
540 768 -16828 -562 237 136
516 744 -16984 -573 248 103
564 720 -16944 -575 235 67
572 688 -16956 -562 236 91
496 732 -16956 -577 253 51
452 696 -16984 -599 261 41
524 728 -16908 -559 242 28
504 724 -17044 -613 254 44
532 696 -16960 -579 253 32
520 716 -16972 -585 224 48
564 672 -17012 -568 250 90
648 656 -16920 -604 247 82
612 668 -16920 -595 257 83
580 596 -16936 -586 234 105
544 656 -16888 -595 238 69
576 712 -17048 -565 223 109
500 668 -16932 -593 214 134
488 616 -16932 -604 266 101
520 696 -16900 -575 251 88
464 712 -16852 -608 227 122
492 700 -16944 -599 280 108
484 760 -16920 -592 260 99
528 776 -16980 -550 290 101
560 700 -17032 -554 257 89
568 680 -16976 -561 275 73
652 684 -16900 -606 252 58
600 728 -16840 -607 262 42
528 696 -16972 -562 260 15
472 724 -16972 -630 232 56
548 688 -16968 -558 251 73
580 720 -16940 -591 256 30
532 716 -16868 -616 248 78
512 704 -16892 -595 254 71
556 708 -16888 -610 261 115
500 660 -16972 -581 268 89
564 696 -16924 -584 272 101
508 688 -16868 -567 262 104
568 728 -16904 -572 259 90
576 716 -16936 -597 269 80
656 708 -17028 -588 269 82
568 744 -16868 -546 227 107
532 744 -17008 -590 272 139
488 728 -16856 -585 249 66
516 756 -17008 -576 270 77
560 784 -16908 -575 224 55
528 704 -16916 -566 261 73
572 664 -16972 -591 237 113
496 732 -16924 -552 260 70
512 676 -16844 -565 276 57
600 720 -16968 -581 283 36
588 772 -16924 -556 289 60
480 744 -17036 -581 256 71
604 708 -17108 -586 236 61
560 660 -16932 -575 254 57
604 740 -16832 -591 212 75
544 668 -17008 -547 253 80
564 640 -16900 -575 270 90
536 728 -17028 -606 248 119
484 696 -16984 -596 226 72
568 660 -16952 -598 269 82
504 688 -17024 -595 248 94
468 760 -16964 -499 242 102
528 640 -16832 -614 289 105
488 732 -16880 -590 251 83
568 700 -16980 -601 243 107
564 740 -17044 -612 263 68
592 684 -17004 -575 242 75
544 732 -16884 -569 269 86
576 728 -16888 -556 260 78
600 724 -16960 -606 258 108
576 660 -16968 -613 255 81
580 656 -16824 -591 251 67
580 668 -16904 -572 226 49
560 692 -17028 -557 229 73
520 688 -16952 -574 246 75
588 716 -17044 -598 280 77
536 740 -16972 -575 227 82
528 716 -16916 -599 261 68
540 684 -16928 -602 250 61
536 696 -16976 -602 269 60
576 692 -17020 -590 281 72
588 708 -17004 -547 229 62
472 720 -16944 -607 256 85
552 636 -16836 -573 253 90
508 652 -16900 -561 249 101
484 744 -16912 -606 222 89
504 772 -16984 -609 259 86
584 692 -16980 -614 298 91
500 764 -16928 -560 273 72
476 664 -16964 -603 267 55
564 664 -16948 -565 262 63
564 640 -16984 -578 264 52
524 708 -16996 -520 259 77
528 628 -16848 -580 265 101
576 660 -17012 -570 250 53
588 708 -16904 -569 231 50
520 696 -17036 -590 254 55
508 688 -16888 -575 241 104
524 636 -16912 -610 252 109
504 700 -16848 -605 280 108
528 708 -17048 -611 212 111
508 768 -16904 -506 228 110
576 740 -16932 -587 259 120
580 704 -16884 -596 255 125
476 704 -17032 -567 245 112
556 712 -16984 -565 253 59
616 760 -17000 -574 274 59
532 728 -17052 -569 232 92
592 752 -16824 -606 242 55
544 772 -16856 -579 242 65
596 708 -16996 -562 240 70
528 700 -16900 -579 259 30
540 664 -16856 -570 222 69
516 752 -16968 -624 261 64
556 676 -16960 -614 228 81
512 628 -17012 -607 265 80
524 652 -17000 -606 260 77
508 652 -16884 -617 230 78
488 692 -16756 -616 252 76
484 676 -16932 -557 248 114
568 640 -16908 -544 259 121
492 628 -17020 -607 258 141
612 700 -16792 -598 214 128
568 708 -16868 -559 294 122
584 708 -16944 -592 247 134
488 768 -17068 -588 269 140
584 792 -16784 -569 242 78
516 708 -16968 -592 243 90
504 720 -16928 -555 234 72
588 696 -16984 -580 262 39
596 728 -17032 -584 282 48
564 652 -16968 -545 248 30
520 712 -17052 -611 237 63
536 748 -17024 -578 242 24
604 688 -16940 -574 269 82
560 672 -16888 -587 245 57
536 704 -17012 -609 266 99
488 660 -16936 -618 227 109
492 656 -16904 -571 225 103
508 684 -17008 -595 262 117
512 676 -16964 -585 249 97
524 576 -16944 -559 241 123
480 668 -16888 -542 249 135
520 736 -16940 -601 270 103
520 756 -16996 -588 265 93
584 700 -17008 -592 257 69
520 748 -16968 -590 220 82
544 716 -16928 -651 257 47
580 768 -17000 -610 249 75
608 716 -16976 -564 250 57
504 716 -16916 -596 257 60
592 660 -17028 -603 248 25
524 608 -16948 -603 254 40
564 664 -16908 -593 241 68
584 668 -16904 -573 260 66
532 644 -17028 -564 272 93
588 724 -16932 -580 261 108
556 604 -17008 -531 247 128
500 740 -16988 -556 245 95
576 688 -17044 -588 281 123
628 668 -16880 -560 253 73
664 756 -16916 -544 239 86
540 820 -17028 -584 248 101
560 732 -16980 -563 213 64
488 656 -16968 -611 247 105
444 704 -17008 -572 252 74
364 716 -16904 -615 267 91
428 688 -16904 -560 272 86
436 604 -16912 -616 294 69
544 620 -16984 -604 282 79
620 636 -17092 -563 284 22
584 688 -16988 -602 273 55
560 632 -16940 -574 218 52
488 740 -16980 -599 275 36
488 760 -16992 -590 279 65
516 716 -16972 -598 278 107
552 712 -17020 -615 237 82
516 616 -16912 -575 253 105
564 532 -16880 -616 277 193
648 268 -16892 -677 306 652
872 580 -16964 -717 287 1255
1284 452 -17360 -610 244 2146
1780 -1236 -17412 -761 93 2725
1180 356 -16832 -857 46 3345
2776 632 -17784 -696 -179 3738
-260 68 -16608 -545 -268 3865
-476 -304 -15740 -649 124 4027
700 360 -16756 -709 311 4055
896 1400 -17564 -618 154 3804
1692 692 -17480 -547 -80 3691
656 1100 -17400 -658 -302 3277
80 1652 -16848 -616 -306 2812
-744 1456 -16372 -489 -135 2100
-836 1156 -16364 -523 131 1304
-1156 2156 -16000 -361 444 463
-1020 1820 -15996 -131 765 -351
-1512 1144 -16348 -26 1108 -1221
580 324 -15912 -95 1360 -1660
1292 -384 -18816 -445 1070 -2076
3276 -332 -19108 -654 144 -1988
-312 2376 -17416 -449 -279 -1833
-1992 1048 -14904 -303 208 -1687
-1140 -76 -15964 -567 844 -1657
1576 1360 -17412 -719 884 -1225
2176 2204 -18272 -539 433 -762
1912 800 -17500 -458 109 -354
784 -228 -16616 -597 140 -213
848 1044 -16476 -715 311 -150
1400 1760 -17140 -581 392 -83
1976 -124 -17716 -504 132 -7
1248 -4 -17472 -612 -72 -73
4 492 -16724 -534 -82 -908
-900 -560 -15644 -752 285 -759
-92 1352 -17040 -558 459 -513
852 -48 -17508 -521 272 -43
248 476 -16872 -533 110 240
-224 572 -16380 -547 339 569
752 468 -16800 -615 479 635
1868 1144 -17612 -603 333 704
1708 788 -17620 -595 103 740
600 608 -16772 -617 37 610
152 860 -16512 -559 150 581
456 508 -17036 -545 240 476
300 448 -17028 -647 181 480
172 1032 -16804 -555 201 638
128 256 -17064 -565 250 760
568 372 -16932 -606 312 858
660 596 -16972 -609 302 929
940 528 -17140 -598 235 943
756 560 -16832 -609 219 945
692 488 -16956 -566 237 902
504 484 -16924 -610 246 843
436 848 -16876 -589 272 894
380 496 -16940 -582 261 882
464 352 -16904 -558 225 873
416 888 -16984 -622 254 833
284 828 -16944 -593 266 817
476 884 -16916 -615 291 695
524 1068 -17056 -596 251 575
576 1084 -17004 -598 228 419
460 1036 -16816 -594 279 248
536 1012 -16980 -582 223 50
420 1040 -17012 -603 231 -157
264 920 -16896 -579 235 -366
112 772 -16812 -549 277 -511
116 552 -16816 -552 313 -703
188 664 -16940 -553 360 -728
444 812 -16980 -536 312 -797
548 768 -17016 -529 290 -780
568 924 -16892 -550 336 -800
388 1172 -17032 -520 346 -878
596 1260 -16924 -534 334 -956
568 1016 -17032 -594 292 -1074
756 1144 -16808 -553 296 -1212
540 1292 -16984 -560 286 -1338
896 1176 -17124 -534 242 -1483
432 892 -16796 -566 233 -1709
440 1264 -16804 -565 272 -1808
580 1004 -16956 -539 340 -1888
1652 -368 -16876 -645 149 -1739
-1188 4 -17712 -757 173 -2036
1644 3176 -15540 -547 295 -1887
-1308 -408 -17596 -545 441 -1565
3900 -956 -17148 -864 208 -1203
-1440 172 -19256 -1084 -98 -1603
1444 5780 -15080 -448 87 -1345
-2408 -1388 -17012 -272 429 -1001
2428 -1584 -16820 -999 316 -1280
1648 1012 -18156 -1392 27 -1245
468 4828 -16332 -556 0 -600
-1088 -1656 -16156 -164 321 -922
2008 -2700 -16484 -782 444 -896
744 412 -17496 -1035 320 -881
1644 2864 -16956 -525 245 -631
332 -372 -17132 -362 245 -564
1204 -1712 -16880 -582 315 -499
692 -448 -17192 -787 298 -379
1148 1204 -16916 -548 186 -46
148 -148 -17212 -487 175 203
740 -308 -16760 -591 252 324
328 416 -17036 -723 197 491
472 1688 -16860 -605 227 493
432 872 -16728 -449 238 563
356 -28 -16844 -581 255 445
732 1100 -16924 -644 304 322
824 1732 -16876 -517 256 315
940 796 -17084 -528 203 282
892 432 -17136 -601 227 243
804 1280 -16980 -608 175 280
488 1212 -17040 -544 152 291
520 480 -16916 -578 160 308
300 384 -16980 -641 155 379
200 1004 -16860 -549 167 403
164 804 -16816 -534 197 416
448 308 -16896 -522 221 449
620 748 -16924 -628 191 303
640 1596 -17048 -579 197 162
660 1412 -16960 -523 178 -20
544 1028 -16960 -577 212 -186
540 1236 -16848 -584 198 -353
428 1364 -16872 -552 239 -500
464 944 -16956 -582 243 -677
488 848 -16924 -623 309 -780
484 848 -17060 -594 237 -832
532 712 -16924 -627 209 -879
284 -96 -17000 -543 205 -756
172 -752 -16660 -582 258 -482
232 -708 -16812 -602 342 -96
552 -324 -17080 -565 317 401
720 -188 -17064 -563 248 644
464 288 -16920 -633 223 741
412 804 -16812 -603 319 725
488 1096 -16900 -589 341 673
684 948 -17004 -569 325 565
740 688 -17108 -593 297 409
728 776 -16996 -606 248 401
596 872 -16924 -612 260 403
532 492 -16908 -587 304 460
492 416 -16964 -591 319 538
556 568 -16948 -612 296 699
508 508 -17020 -551 262 810
536 484 -16928 -595 239 989
464 492 -16832 -576 259 1094
496 832 -16868 -568 261 1091
632 992 -16960 -564 273 1007
592 1152 -16924 -592 240 851
492 1412 -16996 -607 254 672
664 1580 -16752 -589 271 431
636 1424 -17072 -543 313 192
840 1240 -17032 -590 249 -23
736 1196 -17104 -617 226 -221
536 1076 -17076 -594 232 -311
284 892 -16912 -603 267 -459
340 756 -16796 -591 253 -545
376 688 -17024 -592 271 -522
332 584 -16904 -575 282 -490
392 544 -16888 -596 230 -460
400 524 -16916 -572 255 -385
516 636 -16876 -603 275 -310
608 708 -16864 -567 306 -271
668 688 -17060 -618 252 -191
776 792 -16988 -598 223 -255
740 816 -17116 -590 217 -279
668 824 -17016 -561 229 -301
572 720 -17004 -547 204 -414
544 392 -16948 -572 239 -455
548 564 -16984 -596 221 -329
684 412 -17176 -545 186 -84
640 8 -17076 -551 168 67
492 -44 -16972 -642 156 329
272 32 -16956 -608 204 500
196 28 -16800 -532 216 733
208 -228 -16896 -506 239 894
324 -132 -16896 -581 254 1106
404 224 -16824 -542 275 1315
536 392 -16828 -545 267 1435
776 388 -16984 -580 300 1581
1100 672 -17032 -597 302 1611
1100 940 -17036 -541 227 1626
992 980 -17132 -581 194 1584
932 1000 -17008 -591 194 1439
800 1012 -16900 -571 191 1250
584 1276 -16748 -531 252 1096
516 1456 -16692 -557 329 885
560 1448 -16736 -436 340 696
568 708 -16940 -445 339 364
1060 1044 -17004 -495 316 96
628 1160 -17212 -588 203 -140
488 1268 -17016 -602 125 -237
-68 1276 -16920 -562 108 -350
-116 788 -16732 -556 233 -388
-60 604 -16708 -567 328 -360
308 796 -16996 -573 390 -326
744 588 -17084 -549 312 -224
800 352 -17260 -569 234 -143
784 256 -17036 -559 190 -18
440 424 -16808 -590 170 95
572 304 -16792 -562 274 281
756 204 -16908 -607 288 403
932 568 -17176 -612 239 440
776 604 -17080 -570 191 540
556 556 -17016 -590 153 546
332 732 -16756 -585 254 575
332 736 -16788 -575 221 518
516 864 -17000 -569 266 498
792 736 -17080 -561 228 418
764 644 -17076 -580 156 447
612 768 -16924 -596 146 426
440 708 -16832 -599 197 353
384 572 -16900 -578 234 450
340 808 -16948 -583 267 484
484 684 -16900 -606 277 554
368 664 -16984 -597 256 612
400 948 -17028 -578 253 591
356 1016 -16924 -575 239 538
456 1184 -16940 -607 262 376
344 1048 -16916 -582 257 177
324 1108 -16936 -582 287 -8
380 1120 -16872 -555 314 -176
288 1068 -16836 -520 327 -325
308 1076 -16808 -520 366 -462
300 1132 -16856 -510 378 -557
372 1116 -16864 -499 389 -713
576 1044 -16816 -552 399 -854
836 772 -16920 -537 371 -979
768 884 -17012 -591 314 -1031
932 916 -17080 -596 261 -1052
720 600 -16984 -586 222 -1050
684 544 -16992 -616 175 -1006
428 472 -16892 -583 173 -973
448 580 -16748 -595 251 -873
644 148 -16832 -615 227 -727
912 -220 -17512 -769 154 -657
972 1932 -16824 -604 113 -296
240 -92 -16900 -442 187 -71
968 -852 -16844 -604 258 4
876 196 -17196 -667 247 214
1220 552 -16956 -619 165 399
824 104 -17220 -524 125 604
616 -400 -16920 -551 118 719
392 164 -16976 -622 147 794
308 1220 -16936 -534 135 712
-292 488 -16848 -551 187 752
-128 344 -16532 -608 324 918
248 1204 -16836 -633 396 1124
732 1060 -17128 -575 376 1304
1160 556 -17360 -589 208 1218
664 856 -17092 -718 88 1037
136 1352 -16736 -619 124 848
-120 1140 -16336 -556 314 700
208 880 -16696 -546 416 476
656 1192 -17196 -582 383 234
700 1332 -17344 -568 264 27
400 1224 -17084 -550 215 -285
-84 1016 -16776 -578 228 -441
-112 1112 -16564 -552 354 -533
292 972 -16896 -516 452 -650
844 600 -17148 -539 404 -693
1004 676 -17256 -624 335 -729
848 880 -17120 -577 203 -676
732 728 -16912 -552 243 -605
528 464 -16804 -584 249 -573
672 488 -16928 -558 307 -522
756 588 -17040 -544 293 -512
776 464 -17040 -555 287 -513
676 384 -17048 -559 218 -391
468 508 -16844 -582 235 -302
420 552 -16868 -550 298 -107
520 464 -16912 -571 307 -30
644 484 -16960 -592 317 50
832 600 -16972 -609 264 188
676 584 -16952 -594 204 264
704 456 -17056 -586 202 387
704 524 -16872 -585 229 465
664 584 -16964 -566 247 563
696 576 -16960 -605 223 649
812 516 -17024 -642 190 668
612 548 -17056 -589 170 734
492 624 -16860 -589 181 756
384 540 -16888 -581 219 761
480 572 -17004 -615 243 758
452 644 -17004 -585 230 702
516 820 -17040 -598 216 647
356 960 -16960 -583 243 604
360 1008 -16804 -561 219 491
308 1140 -16972 -592 239 370
348 1264 -16820 -597 246 184
512 1220 -16916 -585 278 21
440 1044 -16952 -546 231 -200
452 940 -16984 -568 241 -299
428 836 -16868 -596 273 -420
408 736 -16972 -602 282 -482
500 596 -16892 -556 295 -504
440 620 -16992 -573 293 -460
568 640 -16972 -596 286 -376
508 564 -16912 -578 257 -345
608 604 -16848 -542 258 -170
592 572 -16952 -578 294 -98
804 520 -17048 -614 317 23
836 396 -17068 -580 261 34
784 472 -16996 -595 253 148
760 408 -17076 -563 215 142
660 512 -16892 -595 219 213
476 508 -16860 -579 236 263
452 620 -16936 -598 266 354
488 756 -16892 -568 254 344
292 708 -17044 -565 229 380
324 772 -16960 -564 254 357
320 860 -16952 -616 293 315
384 1020 -16944 -555 288 247
528 876 -16928 -552 267 153
804 1424 -17228 -544 250 -47
548 644 -17180 -553 128 -756
-252 684 -16184 -684 361 -754
-44 2168 -16608 -579 531 -654
1104 836 -17076 -495 495 -481
1976 180 -17724 -612 310 -313
1992 256 -17472 -654 65 -27
852 436 -16920 -637 -26 198
312 196 -16496 -569 70 352
0 -664 -16672 -566 221 430
676 64 -17032 -603 258 487
656 664 -17344 -551 175 323
140 -36 -16924 -519 108 455
-340 244 -16568 -624 276 810
40 1000 -16688 -567 410 1142
380 972 -17184 -514 384 1440
900 760 -17404 -594 290 1426
644 1044 -17072 -638 182 1306
416 1604 -16840 -658 231 954
436 1416 -16760 -576 303 563
776 1220 -17012 -615 375 218
968 1408 -17252 -619 277 -139
656 1328 -17248 -553 203 -536
332 1180 -16852 -570 187 -782
-292 968 -16648 -543 255 -1066
-224 1164 -16668 -552 386 -1213
-36 864 -16956 -537 442 -1209
532 748 -17172 -545 411 -1265
804 780 -17124 -585 294 -1216
772 856 -17140 -571 189 -1180
604 752 -16744 -560 213 -1167
524 548 -16692 -585 292 -1021
860 504 -16856 -601 337 -917
1052 404 -17092 -618 272 -828
972 308 -17088 -559 233 -718
664 212 -16852 -604 210 -635
424 300 -16696 -603 281 -430
380 120 -16720 -605 300 -295
528 228 -16916 -584 353 -125
828 400 -17068 -591 277 25
556 312 -16968 -560 230 107
328 480 -16852 -572 244 190
356 712 -16760 -594 268 309
548 620 -16772 -534 285 343
732 708 -16996 -590 298 298
844 784 -17112 -593 206 234
704 1040 -17208 -680 162 -2
524 2152 -16704 -579 155 38
176 632 -16848 -552 272 -11
760 476 -16632 -612 322 -148
896 936 -17288 -663 250 -271
996 808 -17120 -554 118 -339
500 612 -16864 -578 120 -265
352 272 -16708 -600 198 -109
388 480 -16892 -654 266 6
768 696 -17052 -593 258 216
624 124 -17260 -555 172 291
512 136 -16972 -637 137 406
176 636 -16724 -581 106 547
212 500 -16780 -567 267 714
392 280 -16708 -587 272 792
780 668 -16992 -614 290 836
804 792 -17120 -595 238 870
776 712 -17064 -620 193 836
532 528 -16860 -600 213 791
496 736 -16788 -591 211 741
596 928 -16812 -567 288 705
820 864 -17052 -550 266 661
708 596 -17188 -609 194 559
400 976 -16964 -598 178 551
156 1064 -16792 -584 221 483
48 924 -16816 -577 236 502
180 680 -16880 -643 259 422
272 968 -16844 -622 322 294
656 1156 -17144 -546 265 211
572 704 -16948 -573 237 95
656 872 -16908 -577 240 -4
544 916 -16948 -566 260 -62
632 992 -16884 -584 305 -163
692 764 -17028 -574 267 -250
852 876 -16952 -603 250 -337
692 944 -17040 -557 195 -383
564 672 -16948 -566 192 -373
408 680 -16732 -596 208 -382
380 660 -16868 -595 209 -344
456 616 -16880 -554 268 -301
396 504 -16940 -585 254 -256
452 456 -16900 -611 268 -190
448 536 -16968 -562 236 -98
364 484 -16884 -585 240 -45
420 440 -16856 -521 303 -3
560 584 -16876 -583 297 21
588 708 -17016 -573 291 126
584 712 -17092 -527 301 143
744 688 -17012 -562 265 140
688 748 -17004 -606 247 149
644 872 -17056 -587 254 182
604 820 -16916 -570 203 121
540 860 -17020 -585 232 98
676 1004 -17116 -568 245 90
720 1268 -16980 -563 229 -147
960 1716 -17000 -624 194 -366
884 1592 -16960 -634 162 -649
584 1536 -16984 -617 179 -947
472 1276 -16972 -613 120 -1096
344 1204 -16996 -593 171 -1365
228 904 -16980 -628 200 -1471
328 676 -16824 -655 240 -1580
164 904 -16956 -625 219 -1458
432 280 -17220 -577 184 -1313
756 -1032 -17612 -769 74 -1130
-156 764 -16648 -624 143 -623
-468 -736 -16624 -468 314 -122
668 -1652 -16652 -577 434 213
952 -312 -17392 -674 392 448
1160 392 -17156 -583 165 608
320 860 -17012 -536 125 659
60 652 -16468 -539 233 629
-88 776 -16724 -619 391 525
556 1860 -16884 -606 439 352
648 1324 -17244 -530 399 186
948 624 -17096 -612 291 46
708 1048 -16904 -632 238 -116
620 1100 -16864 -545 350 -110
892 276 -17028 -527 318 -72
1004 180 -17224 -561 265 -71
748 636 -17140 -610 185 -23
472 828 -16828 -536 232 129
376 804 -16796 -596 263 118
540 1020 -16904 -575 312 117
552 1372 -17260 -562 274 6
492 1028 -17008 -542 256 -116
356 608 -16784 -581 274 -130
500 764 -16932 -552 340 -110
732 704 -17124 -538 289 -97
688 300 -17100 -559 243 -4
432 408 -16880 -590 254 110
400 744 -16932 -596 262 178
572 888 -16968 -553 271 206
636 756 -17072 -580 263 168
544 828 -16976 -612 223 56
564 896 -16908 -573 271 28
584 632 -17004 -590 269 4
532 388 -17044 -588 269 25
412 552 -16892 -555 227 65
280 568 -16832 -576 269 137
312 416 -16980 -586 309 211
444 516 -17032 -594 272 281
584 608 -16976 -634 266 298
496 648 -16856 -611 288 348
544 692 -17036 -591 267 317
652 744 -17032 -557 240 350
784 872 -16952 -602 241 318
828 744 -16984 -600 281 302
756 636 -16916 -591 233 268
680 776 -16920 -591 208 251
608 768 -17104 -575 201 219
552 796 -16968 -575 246 233
468 788 -16956 -549 244 238
448 784 -16856 -563 227 228
468 836 -16884 -580 246 237
576 792 -16988 -568 246 246
652 804 -17016 -587 239 165
572 900 -16944 -594 249 181
520 864 -16828 -558 236 155
436 768 -16852 -598 253 122
456 836 -17008 -558 237 59
476 844 -16968 -587 285 40
636 724 -16992 -591 260 19
384 692 -16940 -566 264 -2
520 788 -16896 -550 259 -18
492 664 -17040 -612 271 -36
596 768 -16968 -562 304 -81
800 736 -17084 -567 283 -90
684 668 -16848 -577 259 -113
788 668 -16884 -557 251 -88
696 668 -16980 -581 233 -89
660 696 -16908 -563 224 -38
576 688 -16968 -563 206 -62
336 636 -16820 -558 217 -15
280 612 -16924 -604 243 -21
288 568 -16824 -610 262 12
292 600 -17004 -539 260 38
388 584 -16860 -607 291 85
500 656 -16976 -603 271 123
824 648 -17016 -566 239 164
560 648 -17016 -589 234 158
764 788 -17064 -598 208 123
692 676 -16956 -589 217 120
612 708 -16984 -582 218 122
508 788 -16904 -609 195 85
540 684 -16844 -553 233 15
556 760 -16900 -612 247 43
556 712 -17020 -531 257 79
540 644 -16924 -565 241 119
492 728 -16936 -609 251 114
356 788 -16992 -563 218 206
372 780 -16960 -578 247 155
436 768 -16852 -576 268 169
512 680 -16964 -564 279 182
624 680 -16944 -564 260 204
776 600 -16916 -589 234 247
712 656 -17012 -609 218 325
804 544 -17056 -570 190 312
664 556 -17036 -570 193 394
640 560 -16920 -614 191 358
504 684 -16880 -608 169 297
508 772 -16832 -627 208 233
528 784 -16960 -569 203 180
624 868 -16908 -591 221 119
728 852 -17016 -559 206 105
656 824 -17060 -583 184 94
580 800 -16876 -552 149 45
576 720 -16976 -571 188 25
556 672 -16864 -562 194 86
676 608 -17016 -596 175 143
668 592 -17044 -547 138 219
592 716 -16960 -558 136 207
536 936 -16936 -595 141 175
568 996 -16924 -617 122 94
588 1000 -17036 -584 134 -15
572 984 -16952 -578 115 -101
528 936 -16996 -566 84 -156
480 824 -16884 -567 59 -253
344 552 -16900 -600 92 -242
180 396 -16728 -545 124 -201
164 360 -16820 -579 188 -50
496 320 -16960 -559 223 64
820 456 -17124 -560 183 183
952 628 -17164 -552 79 253
1088 700 -17056 -581 1 299
1116 736 -16984 -611 -11 315
1224 768 -17040 -596 -82 383
1324 1472 -16908 -600 -157 324
1028 356 -17056 -607 -210 419
928 688 -17088 -581 -272 300
644 468 -16964 -612 -293 394
504 280 -16940 -555 -333 409
380 452 -16988 -552 -295 513
240 368 -16864 -545 -316 620
292 668 -16944 -553 -292 691
436 764 -17096 -578 -326 712
544 1044 -16928 -566 -327 688
564 1068 -16972 -578 -333 647
580 1192 -16824 -563 -304 582
1168 1116 -17088 -536 -354 554
1288 840 -17304 -553 -481 491
1564 1260 -17448 -599 -641 408
1588 1156 -17332 -573 -785 351
1528 1268 -17324 -612 -918 313
1424 1028 -17284 -579 -1040 346
1676 900 -17388 -645 -1183 285
2192 408 -17636 -769 -1457 169
1784 2680 -17664 -700 -1777 31
1436 1496 -17848 -446 -2097 -60
2396 124 -18068 -450 -2632 -359
1832 96 -18484 -542 -3050 -472
2732 1296 -17948 -410 -3701 -642
1828 1892 -18304 -174 -4198 -547
1208 180 -18236 -111 -4669 -409
1748 -680 -17216 -179 -4905 -180
768 888 -17532 -100 -4950 -114
916 792 -17212 5 -5122 53
876 -56 -17108 -40 -5242 126
1148 692 -16876 -64 -5321 32
1048 1320 -17180 -68 -5447 -161
528 928 -17168 -37 -5547 -315
492 1240 -17112 -39 -5583 -519
956 940 -16808 -69 -5671 -796
-16 684 -16632 -110 -5589 -947
-184 40 -16316 -298 -5433 -1252
-792 1684 -16196 -325 -4963 -1176
-1860 984 -15244 -312 -4361 -1276
-1124 -64 -15460 -398 -3810 -1126
-1732 164 -15796 -565 -3447 -1105
-2108 1164 -15672 -686 -3012 -1445
-2056 1000 -15656 -570 -2525 -1835
-1536 -744 -15900 -705 -2211 -1750
-1648 720 -15680 -961 -1911 -1850
-3664 192 -15924 -848 -1405 -1412
-2408 384 -14552 -955 -849 -1460
-3568 436 -15040 -967 -244 -1040
-3452 -4 -15172 -1031 332 -856
-2928 3156 -16196 -929 691 -639
-1980 1292 -16112 -688 946 -568
-1828 -556 -17212 -768 981 -393
-1224 196 -17004 -875 969 -281
3700 -160 -20176 -602 176 -81
-3164 -3144 -21536 -1031 -496 -185
4316 3072 -17260 -1098 -1239 -835
-32 2620 -19312 -801 -2235 -711
2348 4300 -18984 -415 -3147 -1268
1116 -956 -19164 -268 -3897 -1258
2560 -700 -18132 -439 -4683 -1503
-636 1036 -17988 -354 -5033 -1177
132 1756 -16540 -130 -5116 -1383
-444 12 -16516 -131 -5113 -1387
-1012 -948 -16716 -334 -5136 -1456
-1124 224 -16568 -383 -5045 -1446
-1472 472 -16196 -387 -4911 -1480
-1544 508 -16396 -379 -4808 -1515
-1616 -228 -16552 -373 -4715 -1394
-1604 -280 -16600 -473 -4691 -1435
-2056 320 -16388 -506 -4644 -1437
-2540 744 -16612 -426 -4596 -1532
-2256 340 -16552 -372 -4531 -1558
-2588 260 -16648 -329 -4525 -1507
-2820 -452 -16192 -356 -4396 -1291
-4024 -400 -15824 -430 -4137 -1040
-5156 440 -15292 -426 -3688 -637
-6144 -116 -14780 -376 -2956 -265
-6924 -472 -14220 -503 -2112 188
-7984 -424 -13904 -539 -1070 559
-8864 -200 -13788 -605 51 907
-8740 424 -13528 -625 1246 1167
-8364 40 -13560 -764 2408 1439
-7912 -108 -13928 -891 3515 1653
-3932 952 -17696 -939 4007 2047
-6936 -228 -18068 -842 4101 2518
-3136 1036 -17236 -868 3835 2522
-2872 1084 -17096 -763 3408 2803
-3024 2240 -17040 -755 3204 2677
-4424 1040 -16360 -714 3457 2472
-2364 708 -15024 -754 3990 1807
-2140 1152 -15812 -736 4396 1146
-2232 1276 -16468 -741 4613 476
-468 1324 -16532 -798 4768 -156
-104 976 -16332 -775 4718 -580
-160 980 -18300 -759 4457 -837
184 748 -17960 -702 4047 -1100
352 540 -17776 -689 3596 -1229
-632 -44 -17524 -634 3188 -1199
-1304 -228 -16888 -664 3058 -1180
-1404 -576 -16812 -606 2993 -1047
-3032 -736 -16684 -610 3064 -739
-3628 -172 -16036 -637 3323 -373
-4412 -144 -15172 -641 3746 -19
-5672 -232 -14988 -738 4322 265
-6960 -212 -14436 -779 5177 543
-7420 8 -13508 -838 6296 668
-8256 -264 -12912 -959 7548 745
-8796 -108 -12572 -1033 8945 847
-8824 428 -12228 -1129 10509 1108
-8568 396 -11948 -1233 12082 1333
-8924 -156 -12004 -1326 13743 1655
-5464 -1248 -8956 -1298 14864 2090
-8556 -280 -15872 -1297 15364 2070
-3084 2152 -15020 -1099 15419 1861
-4736 -1132 -13132 -1101 15640 2590
-5044 -1372 -13508 -1323 16522 3484
5644 -1136 -23728 -978 15652 4663
27712 8300 -32768 174 9923 3072
32767 6072 -32768 1113 997 904
19436 -1636 -19184 197 -4173 75
2292 -5548 -8236 -1484 -3204 877
-7408 2820 -11400 -1825 -297 -1659
-4224 2452 -14976 -1550 2454 418
4092 -2984 -14084 -1399 3068 -1522
5184 -1448 -18960 -1875 2991 -2045
5684 3256 -21660 -1484 2802 -1999
2308 -1628 -18892 -1277 3232 -1922
-336 1068 -15644 -1309 3900 -1892
860 -1016 -15648 -1311 4170 -1757
2012 408 -17196 -1476 3765 -1855
788 240 -17132 -1473 3345 -1795
-1152 -132 -16628 -1508 3466 -1778
-2532 1024 -16456 -1527 3992 -1685
-1720 732 -17200 -1502 4520 -1638
-2712 1340 -17312 -1456 5122 -1437
-3612 952 -16912 -1372 5870 -1302
-3436 420 -17048 -1457 6574 -1056
-2752 736 -17072 -1609 7066 -1058
-2224 512 -17232 -1815 7377 -1110
-2152 896 -16900 -2037 7723 -1051
-1868 972 -16872 -2170 8038 -865
-1548 1476 -16536 -2174 8409 -521
-1140 2052 -16332 -2018 8681 -98
-1040 1960 -16308 -1765 8957 280
-1116 2168 -16272 -1477 9225 702
-1288 2196 -16292 -1283 9564 964
-1600 2204 -16232 -1085 9956 1159
-1416 2188 -16096 -907 10481 1354
-892 2064 -16376 -817 10909 1476
-424 2072 -16268 -786 11283 1552
-116 1624 -16100 -751 11649 1744
508 1156 -16196 -786 11913 1968
1060 940 -16096 -770 12084 2318
1556 720 -16168 -816 12194 2656
1940 496 -16164 -728 12187 2962
2684 452 -16192 -798 12187 3139
3252 516 -16324 -871 12086 3175
3836 720 -16316 -970 11979 3074
4204 1080 -16196 -1041 11881 2825
4452 1268 -15792 -1020 11781 2485
4832 1312 -15820 -997 11741 2141
5320 1324 -15688 -938 11619 1775
5500 1216 -15888 -813 11540 1581
5708 1432 -15712 -715 11478 1314
5924 1168 -15608 -604 11328 1069
6352 1104 -15944 -584 11143 798
7076 676 -15872 -559 10797 563
7580 360 -16056 -646 10402 299
7788 476 -16100 -733 10025 99
7848 476 -15872 -855 9589 -143
8220 508 -15832 -853 9231 -166
8416 552 -15924 -854 8789 -167
8864 628 -15900 -774 8227 -161
8768 376 -15716 -805 7693 -104
9396 436 -14196 -955 6995 -96
8228 -1504 -15512 -1076 6724 433
7772 1156 -15252 -1164 6486 414
8720 92 -16020 -1036 6179 296
8504 2240 -15948 -968 5755 254
7964 1120 -15556 -713 5330 -50
8272 1104 -15692 -755 4994 -283
8564 1796 -16284 -828 4524 -432
8420 796 -16320 -865 4085 -389
7572 1204 -15872 -921 3830 -371
7584 652 -15976 -906 3574 -321
8004 1000 -16080 -973 3188 -211
8412 1160 -15972 -921 2799 -56
8796 1184 -15904 -837 2280 33
8676 1672 -15796 -784 1905 88
8380 1740 -15904 -670 1605 105
7936 2120 -15864 -590 1399 69
7540 1808 -15892 -471 1217 -23
7588 1612 -15852 -393 990 -137
7484 1612 -15908 -381 719 -167
7404 1304 -15996 -375 463 -189
7040 1264 -16048 -414 225 -155
6856 1264 -16084 -378 127 -128
6672 1292 -16092 -431 -13 -32
6588 1360 -15984 -386 -80 -5
6656 1344 -15880 -343 -225 74
6864 1252 -15996 -294 -355 95
7076 1168 -15996 -263 -552 190
7264 1048 -15920 -280 -775 209
7608 1080 -16068 -252 -1007 232
7740 1064 -15944 -274 -1266 211
7820 956 -16032 -252 -1533 176
7796 904 -16004 -270 -1775 143
7684 976 -16048 -201 -2094 118
7712 956 -16104 -174 -2333 88
7760 888 -16104 -226 -2607 -31
7560 828 -16100 -279 -2904 -69
7448 724 -15976 -291 -3137 -112
7444 772 -16092 -366 -3418 -169
7444 860 -16072 -366 -3653 -288
7368 848 -16012 -350 -3948 -329
7564 812 -15836 -332 -4249 -391
7584 768 -15952 -324 -4524 -377
7612 776 -16156 -388 -4824 -421
7508 700 -16124 -326 -5182 -403
7452 756 -16080 -370 -5459 -361
7436 756 -16116 -356 -5777 -383
7340 852 -16056 -351 -6066 -386
7256 944 -16064 -383 -6355 -406
6980 1092 -16020 -376 -6609 -438
6796 936 -16012 -362 -6847 -383
6868 1048 -15872 -395 -7106 -337
6768 1172 -16168 -300 -7442 -440
6400 1228 -16108 -316 -7684 -425
6148 1272 -15964 -265 -7901 -541
6152 1344 -16108 -184 -8090 -672
6280 1328 -16244 -233 -8361 -774
6024 1464 -16132 -130 -8599 -910
5728 1348 -16024 -70 -8854 -1075
5476 1360 -15864 26 -9059 -1165
5444 1356 -16124 98 -9252 -1232
5184 1508 -16248 181 -9425 -1260
3836 1204 -15676 188 -9456 -1300
3456 724 -15648 237 -9298 -1210
3756 780 -16472 161 -9241 -1247
3760 704 -16620 161 -9329 -1283
3264 492 -16364 94 -9375 -1312
2992 576 -16296 26 -9338 -1281
2780 524 -16180 -17 -9309 -1246
2712 632 -16392 15 -9248 -1077
2652 600 -16304 71 -9183 -919
2700 596 -16324 104 -9191 -839
2592 664 -16524 28 -9178 -769
2368 824 -16352 5 -9153 -770
2036 1008 -16348 -3 -9091 -790
1864 1152 -16284 24 -8950 -807
1788 1384 -16400 65 -8875 -820
1572 1440 -16476 113 -8785 -813
1360 1464 -16432 179 -8731 -766
1232 1436 -16436 265 -8628 -785
1368 1508 -16400 309 -8599 -819
1536 1372 -16480 400 -8558 -790
1860 1140 -16532 401 -8650 -834
1928 1020 -16540 451 -8706 -869
1976 732 -16456 493 -8777 -964
2060 332 -16596 504 -8883 -1043
2316 184 -16716 456 -9005 -1190
2696 252 -16860 364 -9173 -1438
2720 76 -16568 305 -9351 -1514
2908 160 -16572 238 -9575 -1705
3284 392 -16612 261 -9903 -1891
3324 536 -16372 236 -10312 -2107
3584 596 -16448 301 -10714 -2325
4244 1256 -16128 301 -11417 -2562
-32768 3880 -32768 2349 -2549 -1353
32767 -6888 -7068 372 -447 -4910
-4476 -4668 -19112 -3166 -2383 1858
-13956 464 -18688 -1378 -1136 3257
-3424 -4304 -14760 -405 -975 -1364
1720 15156 -12764 -45 -858 615
-4592 -10452 -18424 -419 -797 2726
-1276 2524 -18104 -1340 -1297 2026
-2868 2664 -16336 -312 -1216 3078
-348 1096 -15880 -557 -1218 2268
-2140 2056 -16944 -834 -1082 2062
-1608 1496 -16500 -698 -594 1407
1188 2184 -15968 -585 -433 930
468 336 -17656 -631 -578 664
1944 1304 -17664 -525 -736 473
2360 204 -17904 -499 -1117 583
1980 1012 -17788 -551 -1445 491
2276 952 -17112 -470 -1619 523
2600 1160 -17976 -403 -1828 469
3228 -324 -18160 -425 -2358 525
3308 -496 -18760 -417 -2976 754
3780 0 -18832 -425 -3717 843
3740 -256 -19260 -304 -4564 994
4324 -264 -19212 -237 -5454 1145
4432 -496 -19556 -172 -6391 1352
4816 -24 -19552 -122 -7445 1505
4632 380 -19668 33 -8507 1581
4140 1236 -19340 171 -9455 1480
3696 600 -18092 492 -10007 1448
3592 1364 -18452 415 -10603 1240
2340 -756 -18848 28 -10928 1164
3496 600 -16968 -313 -11293 461
1936 3876 -16616 50 -11431 239
1216 1780 -16324 140 -11460 -236
940 -64 -16092 -80 -11394 -573
-124 1496 -15572 -178 -11052 -852
-728 1880 -14884 -103 -10665 -1052
-1620 1168 -14796 -103 -10087 -1375
-2160 724 -14484 -205 -9396 -1633
-2880 656 -14064 -340 -8601 -1911
-3640 1312 -13596 -332 -7653 -2146
-4532 668 -13360 -309 -6562 -2299
-4620 80 -13208 -471 -5463 -2415
-4876 -44 -13248 -545 -4355 -2381
-5352 -4 -13200 -518 -3202 -2159
-4964 -5560 -14792 -1360 -2160 -1690
-5052 4480 -15616 -1369 -1484 -1422
-4048 640 -14392 -768 -871 -1326
-3888 1248 -15564 -949 -629 -1359
5740 -92 -26772 -628 -1976 -236
-4136 -5732 -28932 -1561 -3879 -677
4328 3428 -22868 -1933 -6247 -1003
1848 5828 -19292 -1494 -8361 -1771
244 10948 -16164 -371 -9166 -2416
-3304 12 -15524 461 -8788 -1874
-2792 -5444 -14072 -249 -8147 -1903
-4340 -944 -14940 -638 -7434 -1778
-4856 2000 -15296 -247 -6855 -1767
-3368 -92 -17368 -150 -6778 -1509
-2648 -1740 -17656 -350 -7284 -1054
-3688 -44 -17024 -425 -7602 -555
-4152 1280 -15752 -272 -7597 -468
-4336 956 -15136 -257 -7189 -514
-4260 -672 -14948 -293 -6706 -740
-3636 -956 -15516 -562 -6476 -973
-4132 732 -16088 -559 -6293 -1090
-4464 1560 -16320 -421 -6220 -1165
-4880 484 -16132 -395 -6224 -1083
-5748 -20 -15528 -485 -6060 -916
-6400 372 -14824 -599 -5603 -941
-6956 -220 -14592 -736 -5026 -956
-7012 196 -14808 -765 -4450 -905
-6812 -496 -15120 -741 -3960 -750
-6672 -124 -15400 -750 -3701 -541
-6564 476 -15584 -684 -3325 -278
-6824 688 -15276 -563 -3012 -87
-6352 416 -15336 -441 -2669 -61
-6376 -312 -15440 -538 -2346 -104
-6064 48 -15432 -555 -2046 -209
-6056 80 -15548 -510 -1801 -215
-6024 96 -15660 -524 -1515 -115
-6292 -336 -15472 -489 -1208 110
-6548 16 -15172 -597 -816 278
-6732 396 -15188 -571 -344 403
-5968 292 -15332 -563 46 553
-5424 248 -15848 -613 244 523
-4860 920 -16020 -634 356 455
-4372 1060 -16216 -580 364 382
-3900 928 -16536 -584 325 252
-3752 844 -16432 -570 232 134
-3596 924 -16308 -543 141 -43
-3632 1016 -16364 -560 123 -136
-3520 764 -16344 -588 105 -320
-3276 792 -16440 -575 73 -450
-3072 944 -16596 -591 -29 -619
-2912 632 -16724 -554 -173 -684
-2856 28 -16852 -528 -332 -626
-3184 -184 -16616 -575 -516 -487
-3556 172 -16388 -528 -634 -296
-3932 556 -16020 -522 -629 -204
-4084 476 -16088 -526 -525 -188
-4036 448 -16192 -545 -483 -231
-4088 576 -16392 -598 -482 -209
-4080 716 -16360 -546 -538 -251
-4064 508 -16448 -562 -590 -240
-4148 472 -16332 -578 -678 -200
-4252 468 -16040 -552 -637 -186
-4404 448 -16012 -589 -552 -141
-4440 436 -16000 -569 -412 -108
-4488 508 -15992 -537 -329 -26
-4648 440 -16112 -548 -296 21
-4892 492 -16124 -586 -231 65
-5012 476 -15852 -561 -127 101
-5216 528 -15908 -571 -49 55
-5556 352 -15608 -551 134 52
-5672 508 -15540 -580 375 40
-5752 328 -15552 -605 631 114
-5980 200 -15572 -644 869 193
-6036 144 -15680 -622 1155 295
-6148 148 -15560 -623 1378 329
-6164 288 -15572 -667 1645 391
-6280 192 -15468 -662 1963 402
-6220 748 -15352 -689 2282 402
-6244 432 -15172 -690 2625 423
-6488 -8 -15572 -707 2879 417
-6444 72 -15488 -706 3164 425
-6424 8 -15288 -720 3527 438
-6528 120 -15364 -774 3855 509
-6672 332 -15200 -799 4229 512
-6712 296 -15188 -808 4573 661
-6576 288 -15208 -774 4985 740
-6592 332 -15372 -786 5339 824
-7020 272 -15240 -826 5688 852
-6424 656 -15316 -794 5983 749
-6440 492 -15172 -831 6325 686
-6540 848 -14936 -875 6760 657
-6420 656 -14848 -796 7230 687
-6188 176 -14828 -845 7746 701
-5900 648 -15164 -843 8126 876
-5608 520 -15188 -733 8432 1043
-5292 596 -15572 -623 8626 1329
-5036 320 -15660 -534 8811 1657
-5148 -928 -15688 -734 9039 1947
-4096 1036 -15188 -774 9191 1878
-4844 2272 -15288 -326 9472 2031
-3948 272 -15836 -248 9679 2087
-3344 -2312 -16372 -686 9792 2185
-2448 536 -16036 -874 9821 2060
-3048 1120 -16524 -695 9848 2076
-1732 368 -16536 -680 9709 1897
-1420 640 -16856 -668 9546 1879
-1032 744 -16976 -667 9274 1854
-896 928 -17308 -615 8962 1956
-452 608 -17108 -653 8630 1864
-668 544 -17340 -710 8290 1650
-852 1288 -17192 -740 7967 1406
-672 1604 -17024 -580 7704 1170
-668 772 -17164 -603 7437 955
-976 852 -17096 -535 7136 924
-940 520 -17096 -527 6898 974
-968 4 -16948 -540 6679 1020
-3032 936 -15916 -488 6819 1113
-1696 -1776 -15108 -593 7254 1090
-2784 -188 -15328 -864 7686 1133
-2176 1644 -14532 -690 8150 1189
-3980 108 -14696 -581 8823 1440
-2804 376 -14384 -765 9485 1547
-3796 28 -14324 -841 10167 1675
-3820 1024 -14344 -867 10888 1671
-3308 244 -14712 -874 11875 1717
2748 380 -12404 -812 12642 1142
-6416 328 -16004 -671 13502 1710
3804 932 -12984 -767 14278 1184
-2908 -8404 -17308 -1934 14851 1670
3792 3464 -15340 -2592 15346 529
1188 7032 -32768 -1187 14345 1513
26676 5708 -32768 -56 9456 -405
32767 -3620 -32768 -840 1303 -521
13128 7080 -26640 -1342 -3241 -1128
2916 1776 -13408 -1305 -2485 -2317
-2336 4064 -10816 -1172 -1056 -3459
-2664 1880 -13044 -545 277 -3969
-668 -1148 -12480 -395 1471 -4227
704 240 -16912 -197 1951 -4077
4536 -3120 -19048 -512 1603 -3445
5208 -1732 -20456 -1017 714 -3102
2192 -2220 -17916 -1486 460 -2547
988 -872 -16016 -1824 597 -2845
-1768 544 -16348 -1842 1114 -2727
2712 400 -16148 -1854 1237 -2757
668 1088 -17524 -1610 983 -2647
928 1180 -16668 -1509 995 -2483
560 1344 -16620 -1379 992 -2444
-120 1332 -16720 -1209 1048 -2193
-1064 892 -17048 -1119 1299 -2012
-1864 424 -17200 -1173 1757 -1761
-2596 532 -17376 -1216 2249 -1564
-3056 120 -17452 -1437 2850 -1404
-3812 456 -17240 -1588 3604 -1229
-3484 748 -17280 -1618 4326 -961
-2956 1032 -17180 -1757 4907 -645
-1456 1300 -16708 -1626 5093 -442
-2864 1264 -16120 -1600 5431 91
-3160 1912 -16636 -1580 5871 301
-2120 2168 -17184 -1575 6342 715
-2508 2056 -16648 -1483 6782 919
-2424 2236 -16372 -1373 7220 1199
-2328 2016 -16564 -1245 7721 1288
-1804 2404 -16544 -1046 8117 1439
-1464 1884 -16452 -906 8458 1702
-1076 2068 -16404 -784 8739 1929
-1008 1828 -16480 -665 9040 2311
-844 1800 -16408 -596 9336 2546
-712 1644 -16400 -519 9578 2836
-140 1584 -16512 -508 9724 3002
268 1460 -16420 -511 9923 3129
792 1308 -16276 -462 9994 3227
1184 1248 -16380 -447 10100 3311
1828 1076 -16464 -416 10124 3308
2100 928 -16388 -449 10154 3389
2516 892 -16260 -505 10213 3200
3160 720 -16408 -568 10177 3019
3340 612 -16324 -621 10083 2764
3948 524 -16520 -691 10056 2380
4112 252 -16532 -760 10014 2225
4628 412 -16308 -773 9966 2036
4568 280 -16224 -757 9934 1925
4164 524 -16152 -700 9943 1867
3840 468 -16128 -655 9980 1786
4328 352 -16228 -643 9943 1657
5128 0 -16148 -651 9687 1463
5668 184 -16456 -808 9338 1256
5256 424 -16596 -877 9117 1120
5300 328 -16296 -935 8952 928
5912 280 -16272 -989 8709 828
6340 292 -16216 -968 8306 720
6944 376 -16208 -978 7908 686
6864 516 -16128 -958 7528 529
6784 428 -16136 -950 7227 570
7012 420 -16292 -950 6918 421
7304 532 -16252 -964 6560 286
7424 696 -16200 -1019 6174 151
7444 500 -16164 -1037 5747 90
7568 684 -16264 -1034 5311 -62
7552 740 -16268 -1033 4921 -116
7748 968 -16272 -1054 4475 -181
8000 956 -16296 -1030 4060 -264
8096 1080 -16324 -1054 3600 -370
7848 1336 -16240 -1006 3219 -454
7720 1256 -16152 -973 2821 -514
7480 1048 -16344 -910 2498 -538
7608 944 -16440 -892 2092 -551
7604 920 -16352 -946 1705 -493
7796 1100 -16440 -1049 1240 -471
7556 1448 -16244 -1022 917 -440
6940 1724 -15956 -986 687 -419
6484 1812 -15972 -894 557 -359
6308 2036 -16204 -699 384 -426
6116 1944 -16176 -593 238 -454
5792 1736 -16128 -540 105 -495
5448 1572 -16288 -470 -5 -464
5308 1424 -16276 -454 -31 -302
5164 1252 -16364 -456 -100 -245
5108 1136 -16180 -459 -97 -34
5220 1216 -16328 -457 -202 42
5144 1328 -16308 -471 -260 176
5160 1384 -16152 -387 -309 210
5392 1520 -16268 -370 -335 241
5648 1480 -16296 -303 -470 217
6028 1388 -16312 -310 -607 254
6256 1280 -16208 -284 -781 180
6372 1232 -16288 -264 -1022 225
6512 1112 -16236 -205 -1251 167
6692 1040 -16220 -189 -1508 117
6952 928 -16280 -185 -1788 56
7112 832 -16316 -220 -2101 26
7240 848 -16304 -222 -2416 -53
7260 732 -16160 -255 -2739 -161
7280 700 -16228 -248 -3081 -212
7380 648 -16312 -275 -3428 -353
7440 672 -16332 -365 -3791 -475
7268 636 -16304 -318 -4146 -499
7104 692 -16272 -326 -4509 -534
6780 616 -16104 -317 -4771 -477
6616 496 -16248 -308 -5036 -395
6668 336 -16412 -322 -5359 -292
6476 396 -16380 -315 -5734 -225
6300 580 -16372 -425 -5987 -246
6296 740 -16388 -425 -6251 -298
6180 876 -16420 -444 -6532 -367
5960 1184 -16204 -415 -6846 -462
5796 1216 -16296 -365 -7103 -633
5524 1140 -16120 -319 -7279 -750
5348 1064 -16264 -294 -7479 -847
4816 1172 -16284 -309 -7644 -859
4324 1156 -16272 -212 -7730 -891
3880 1088 -16320 -164 -7733 -924
3704 952 -16256 -208 -7805 -880
3412 884 -16356 -240 -7794 -816
3264 860 -16364 -242 -7767 -727
3132 912 -16520 -281 -7761 -667
3092 908 -16488 -252 -7785 -627
3184 960 -16364 -253 -7827 -528
3348 1048 -16548 -271 -7938 -547
3516 1232 -16528 -218 -8050 -583
3480 1360 -16536 -189 -8147 -706
3268 1444 -16488 -49 -8197 -808
2600 1404 -16148 -31 -8133 -946
2308 1144 -16192 36 -8044 -859
2472 1084 -16532 95 -8011 -903
2252 932 -16516 95 -7998 -883
1844 800 -16500 168 -7992 -875
1580 808 -16592 105 -7977 -818
1592 700 -16580 83 -7899 -765
1776 620 -16632 43 -7962 -778
1680 820 -16560 -25 -7972 -768
1844 776 -16720 16 -7971 -777
1840 696 -16452 35 -8027 -751
2008 392 -16628 -6 -8089 -768
2220 376 -16784 -72 -8180 -752
2260 260 -16784 -188 -8253 -851
1884 -52 -16776 -357 -8259 -929
1124 -328 -16912 -537 -8127 -1026
244 -624 -17060 -732 -7809 -1030
-588 -912 -17352 -1055 -7385 -1030
-2732 -1532 -17792 -1548 -6603 -982
-3780 -2612 -18092 -2252 -5590 -916
-4264 -2620 -18120 -2970 -4498 -582
-1204 -140 -18696 -3305 -4201 -850
-576 684 -17096 -3281 -4339 -540
-2000 616 -15208 -3174 -4287 -463
-2028 892 -15928 -3018 -4151 -33
-2064 348 -17012 -2940 -3920 214
-4824 2176 -15804 -2581 -2132 68
-5776 5100 -13120 -1954 -685 2374
980 -88 -13136 -1568 -1069 1034
-5564 7996 -15176 -692 -111 1479
2028 2584 -14368 -137 -194 1475
-3956 1776 -18292 124 -192 2247
600 20 -17792 0 -487 1897
-916 -404 -18108 -380 -637 1917
1532 1380 -17176 -827 -882 1684
-500 1836 -17388 -748 -854 1832
1096 1400 -16100 -510 -805 1659
468 2432 -16528 -319 -671 1466
1744 1020 -16956 -227 -638 1287
2016 568 -17464 -365 -798 1058
2352 612 -18108 -532 -1052 1109
3196 680 -18100 -536 -1463 1069
3100 956 -17912 -505 -1870 1155
3016 988 -17816 -419 -2226 1256
3012 496 -17536 -362 -2445 1296
2756 484 -17476 -360 -2673 1332
2488 568 -17660 -422 -2880 1306
2908 1056 -17916 -415 -3178 1153
3632 1896 -18412 -318 -3744 870
3800 2144 -18892 -319 -4501 569
3572 2252 -18604 -288 -5147 202
3108 2008 -17816 -284 -5619 -159
2264 1652 -17272 -233 -5873 -342
1932 1072 -16996 -150 -5979 -490
1448 696 -17444 -135 -6108 -488
1788 896 -17468 -175 -6396 -638
1416 1324 -17584 -203 -6688 -703
1340 1652 -17356 -239 -6911 -768
1040 2004 -17196 -177 -7178 -865
1380 1912 -17164 -8 -7397 -1136
1444 2172 -17180 48 -7618 -1500
1644 2096 -17092 130 -7847 -1855
1080 2104 -16840 189 -8044 -2251
400 1768 -16464 217 -8022 -2533
-300 824 -15980 185 -7935 -2663
-1248 452 -16240 170 -7768 -2655
-1720 268 -15948 45 -7573 -2597
-2612 500 -15700 -100 -7253 -2362
-3592 744 -15204 -218 -6796 -2118
-3800 1176 -14832 -178 -6199 -1824
-3224 2356 -15264 -56 -5807 -1751
-2200 2604 -16376 262 -5845 -1663
-1636 2560 -17248 552 -6171 -1488
-1512 2412 -17156 875 -6584 -1253
-1764 2168 -16632 1237 -6869 -1043
-2108 1852 -15936 1565 -6951 -840
-2512 2004 -15752 1935 -6902 -660
-2572 1560 -15116 2190 -6760 -572
-3352 1988 -15332 2396 -6476 -436
-3388 1660 -14700 2640 -6144 -347
-4092 2412 -14576 2869 -5582 -276
-4268 1864 -14636 2996 -4736 -271
-2140 -21240 -20532 -1102 -4164 -483
152 4940 -18096 -2512 -5102 -385
-7020 1304 -14332 -637 -4287 -219
2832 12044 -14576 342 -4479 -1192
-4400 -9952 -18692 -111 -4595 -3
2524 -172 -17452 -1189 -5327 -1304
-2272 808 -16772 -301 -5620 -489
-1636 1972 -17044 -153 -5881 -1252
-1340 -2416 -17136 -349 -5880 -998
-732 -1084 -16496 -425 -6115 -1123
-2820 -420 -16868 -322 -6174 -710
-2584 -1300 -15948 -291 -6152 -825
-4016 -164 -15524 -290 -5845 -642
-4008 -892 -15828 -297 -5653 -562
-4688 -536 -15828 -371 -5432 -511
-5384 844 -14808 -365 -5031 -502
-5864 252 -15792 -305 -4686 -294
-6240 -384 -15836 -401 -4454 -260
-6004 1064 -15140 -382 -4146 -243
-6560 816 -15184 -378 -3755 -266
-6736 1168 -15152 -448 -3297 -491
-6704 840 -15008 -467 -2768 -645
-7088 540 -15244 -482 -2303 -661
-7176 -196 -15360 -524 -1865 -592
-7444 -748 -15072 -622 -1346 -327
-7868 -308 -14916 -713 -743 -15
-7816 260 -14476 -708 -96 252
-7976 304 -14784 -706 537 526
-7248 312 -15060 -697 1064 727
-7304 52 -15268 -616 1481 955
-6968 520 -15432 -659 1842 1159
-6908 572 -15360 -649 2183 1403
-6764 780 -15276 -656 2571 1633
-6560 852 -15272 -617 2993 1770
-6056 1224 -14996 -511 3377 1695
-5612 1548 -15304 -415 3759 1638
-5472 1164 -15784 -396 4072 1532
-4376 -1128 -16224 -731 4325 1294
-4124 1344 -15828 -905 4507 909
-4356 2216 -16096 -719 4715 692
-3716 880 -15816 -690 4851 367
-3648 28 -15892 -786 5054 216
-4040 200 -16080 -835 5207 118
-3860 696 -16056 -789 5341 26
-3596 108 -16256 -714 5412 43
-3480 -528 -16412 -820 5453 45
-3888 44 -16204 -808 5509 130
-4276 488 -15804 -784 5714 264
-4576 -132 -15812 -758 5975 398
-4708 -88 -15680 -815 6289 500
-4812 472 -15912 -779 6515 657
-4956 764 -15540 -781 6824 723
-4776 564 -15384 -791 7154 865
-5332 452 -15248 -801 7533 932
-5296 404 -15320 -783 7972 1105
-5676 108 -14784 -854 8529 1172
-5572 868 -14616 -777 9113 1196
-6248 636 -14668 -700 9684 1334
-5620 476 -14912 -692 10172 1356
-6364 -20 -15236 -823 10662 1604
-5424 88 -14680 -1014 11286 1582
-6932 -108 -13640 -980 12129 1987
-4952 1272 -13760 -944 12931 1924
-5552 -136 -14384 -952 13550 2153
-3948 1120 -15164 -1035 13957 2099
-3512 1392 -15124 -919 14246 2045
-2924 1356 -15204 -905 14490 2034
-3052 524 -15096 -915 14842 2150
-2572 604 -14308 -937 15326 2189
-3104 60 -13748 -893 16024 2559
-3096 -80 -13908 -884 16749 2781
-3132 -908 -13160 -871 17635 3337
-2784 -1188 -13156 -995 18433 4007
3872 -2516 -23136 -638 17373 5186
27772 6780 -32768 138 11815 3232
32767 13016 -32768 1043 2125 1875
25516 664 -24680 815 -4191 1012
2672 -3752 -12156 -1707 -3779 -1063
-2652 4492 -9584 -2405 -778 -2473
-3768 3060 -13948 -1729 1283 -3145
3036 -620 -12372 -1276 2196 -3857
1308 -2044 -16312 -600 3025 -3289
10928 680 -17944 -130 2295 -3090
10192 -2288 -20940 9 848 -2626
7224 -72 -19716 -399 43 -2717
4036 -1072 -16808 -886 -104 -3000
2696 160 -15636 -1324 71 -3647
-964 1124 -17516 -1421 472 -3886
1532 -524 -16684 -1490 459 -4008
-332 224 -16600 -1463 367 -3695
-2064 -1240 -16816 -1373 613 -2795
-8 -1120 -16344 -1500 624 -2116
-2208 -680 -17168 -1458 816 -1248
468 -932 -17068 -1698 741 -660
-540 500 -17476 -1889 686 -321
-88 328 -17196 -1980 739 -19
568 860 -17076 -2135 631 -130
268 1680 -16960 -2066 653 -215
44 1852 -16756 -1903 786 -330
100 2788 -16808 -1549 980 -362
-796 2372 -16336 -1250 1226 -246
-360 2804 -16836 -1085 1508 -259
-92 2440 -16940 -945 1706 -127
-300 2220 -16776 -823 1831 -162
-708 1832 -16728 -770 1996 -77
-392 1796 -16968 -761 2117 24
-88 1576 -16912 -729 2137 160
144 1464 -16940 -741 2172 328
288 1492 -16868 -772 2203 432
24 1464 -16856 -707 2347 594
-248 1728 -16700 -575 2589 781
-268 1780 -16748 -435 2839 944
160 1928 -16736 -306 2976 1058
692 1936 -16780 -157 2976 1128
1048 1708 -16844 -130 2846 1087
1164 1528 -16868 -162 2719 1033
1420 1448 -16836 -113 2607 968
1640 1380 -16944 -163 2432 933
1760 1144 -17044 -151 2331 904
2264 1168 -17020 -167 2171 916
2624 1004 -17056 -185 1980 869
2956 976 -16908 -207 1689 810
3076 1064 -16880 -164 1430 697
3528 936 -16804 -102 1152 655
4096 1044 -16844 -90 877 566
4544 1252 -16920 -43 477 484
4728 1004 -16744 3 135 427
5124 1072 -16772 121 -280 318
5608 992 -16880 142 -797 143
5916 1000 -17024 146 -1427 -56
6000 808 -16768 192 -2076 -212
6096 672 -16820 224 -2720 -414
6340 360 -16824 171 -3426 -633
6400 -8 -16816 101 -4217 -773
6540 -232 -16784 48 -5070 -880
6288 -540 -16588 -29 -5918 -824
6508 -496 -16748 -85 -6774 -887
6356 -440 -16724 -182 -7577 -958
5840 -404 -16840 -359 -8310 -1005
-32768 12672 -32768 1690 -2772 -1903
19620 3228 -8660 194 -1411 -1942
-4344 1980 -11180 346 -2119 1884
-8284 -2500 -17480 1394 -1248 1031
-1096 2652 -15748 860 -1033 -202
3216 -14840 -15732 -798 -1190 1245
-5576 7168 -16844 -1818 -1298 1988
-5136 -1528 -15020 -389 -432 3223
-2292 4432 -14052 -537 1 2325
-2692 -264 -17516 -356 283 3472
240 -1260 -17228 -915 74 2774
-1764 3024 -17900 -876 81 2830
832 3016 -16384 -731 -67 2285
-1560 2756 -16904 -595 99 2036
-120 952 -16664 -593 262 1437
244 1056 -17028 -685 293 781
608 1652 -16864 -635 330 330
408 540 -17080 -556 325 88
484 288 -16840 -594 339 -122
576 356 -16796 -529 368 -214
456 56 -17148 -601 284 -231
500 192 -17252 -591 237 -288
156 104 -17072 -539 213 -272
96 -228 -16628 -545 221 -232
-576 -20 -16696 -559 313 -228
-232 184 -16480 -518 448 -186
-400 -88 -16884 -492 577 -185
28 220 -16836 -518 574 -226
-92 180 -16868 -484 635 -304
276 464 -16700 -444 620 -374
-28 780 -16848 -488 686 -600
376 1120 -16828 -483 735 -826
444 1264 -16884 -454 801 -964
752 1316 -17016 -505 761 -1056
880 1772 -17120 -544 744 -775
1396 800 -17368 -543 571 -525
1112 1480 -17420 -656 412 -281
1124 2376 -16684 -631 375 -180
1632 3080 -16728 -521 382 -171
800 2464 -17440 -490 343 -114
2256 -72 -17444 -684 101 -418
1504 360 -17360 -730 -55 -512
676 1276 -17192 -583 -107 -812
-4 -132 -16588 -456 37 -1019
-164 -520 -16344 -593 241 -1236
-460 -84 -16504 -593 397 -1300
-176 688 -16588 -496 466 -1286
96 488 -17020 -435 487 -1030
288 -124 -17156 -595 415 -882
248 696 -16876 -574 360 -600
256 1216 -16804 -575 398 -291
624 648 -16968 -542 378 -53
1008 268 -17192 -657 348 113
1216 592 -17312 -641 220 161
1048 668 -17140 -601 84 175
680 152 -16860 -567 95 112
344 28 -16712 -607 175 -22
236 372 -16588 -580 267 -32
356 496 -16912 -475 326 -57
468 276 -17028 -554 324 -57
532 376 -16996 -603 256 51
404 992 -17044 -591 287 264
364 1044 -16812 -552 303 403
556 836 -16916 -573 315 560
892 904 -17072 -631 240 574
896 1060 -17196 -620 183 577
784 880 -16996 -578 154 548
580 656 -16844 -575 182 383
528 688 -16704 -609 229 251
524 868 -16912 -567 232 105
588 744 -17068 -582 233 -12
524 664 -17052 -605 193 -90
328 912 -16976 -571 243 -136
240 1004 -16808 -592 279 -137
272 868 -16876 -580 287 -104
368 724 -17056 -570 297 -57
544 764 -17028 -615 263 -58
420 668 -16988 -586 210 -7
392 464 -16972 -589 263 -36
352 544 -16892 -608 276 -44
336 584 -17016 -555 305 -90
636 552 -17044 -570 311 -97
608 428 -17048 -579 281 -97
636 512 -16888 -599 290 -90
636 696 -16812 -592 289 -4
592 636 -16988 -545 276 41
640 580 -16980 -582 243 105
684 640 -16936 -589 227 191
696 628 -17024 -591 214 237
532 492 -16860 -572 220 259
456 496 -16784 -579 242 241
468 556 -16904 -592 253 205
484 640 -16876 -541 252 223
588 636 -17028 -554 229 221
460 684 -16920 -593 251 220
376 816 -16972 -564 193 207
468 856 -16916 -582 279 252
452 844 -16996 -564 242 250
568 828 -17012 -586 243 258
460 976 -16932 -594 221 241
444 796 -16904 -594 252 172
400 752 -16904 -616 246 144
436 800 -16944 -583 258 69
440 852 -16892 -576 250 -33
480 816 -16976 -575 261 -42
392 800 -16892 -581 286 -63
452 792 -16892 -577 293 -76
444 880 -16996 -569 291 -91
496 748 -16852 -579 311 -60
628 776 -16892 -588 264 -27
640 732 -16952 -556 266 -20
636 712 -16988 -582 290 -66
544 608 -16872 -557 249 -47
604 616 -16940 -558 235 -68
520 528 -16956 -552 251 -54
508 576 -16944 -601 213 -21
504 528 -16876 -596 250 25
388 556 -16904 -581 229 97
348 644 -16936 -593 224 156
372 636 -16872 -582 243 211
512 556 -17004 -565 264 241
440 672 -16864 -589 221 273
464 680 -16944 -597 277 267
452 648 -17024 -608 268 271
512 752 -16876 -597 235 205
600 796 -17024 -594 284 170
608 820 -16992 -576 270 147
592 796 -17076 -615 259 105
496 816 -16956 -604 238 100
496 836 -16944 -612 256 28
572 808 -16960 -569 248 59
496 784 -16940 -543 267 36
532 808 -16984 -574 213 33
560 736 -16928 -600 271 -24
512 648 -16908 -602 235 3
520 592 -16940 -577 269 -19
564 684 -16912 -548 270 -39
512 648 -16900 -566 279 -25
492 548 -16952 -548 258 28
560 668 -16920 -559 252 46
472 676 -16912 -590 232 79
608 616 -16960 -573 271 77
572 612 -17036 -590 248 96
544 644 -16968 -592 252 76
520 612 -16936 -616 237 97
552 708 -16904 -595 257 122
444 728 -17028 -586 242 123
500 632 -17012 -558 249 134
448 708 -17048 -561 263 132
452 628 -16952 -604 261 123
452 732 -16884 -565 259 96
428 736 -16900 -563 273 134
480 720 -17132 -589 261 105
580 736 -16968 -578 279 91
500 788 -16888 -602 241 76
488 740 -16908 -559 235 78
540 716 -16908 -555 253 38
480 732 -16912 -599 235 44
552 620 -17036 -553 254 56
556 652 -16840 -596 235 1
496 632 -17028 -548 232 47
540 732 -16860 -567 263 43
476 768 -16980 -594 258 70
452 712 -16828 -596 261 132
528 632 -16920 -591 247 122
504 708 -16976 -596 261 108
500 712 -17004 -567 248 139
532 704 -17060 -654 223 149
568 680 -16876 -593 265 101
540 692 -16856 -588 248 81
536 764 -17092 -588 229 87
480 692 -16944 -583 256 91
492 700 -16944 -581 267 70
436 740 -16920 -581 249 53
500 740 -17032 -603 264 72
444 724 -16928 -598 264 44
472 648 -16980 -585 263 27
456 668 -16980 -602 214 44
476 684 -16960 -580 230 78
504 668 -16944 -566 232 72
548 696 -16980 -563 273 65
520 696 -16960 -590 268 42
536 704 -17020 -569 258 117
628 720 -16796 -607 237 98
524 772 -16932 -560 253 91
784 760 -16928 -571 210 139
396 540 -17028 -603 210 67
768 712 -16940 -602 241 57
372 748 -16920 -599 244 44
468 708 -16884 -575 238 72
456 644 -16964 -581 234 64
472 684 -16792 -606 253 41
428 756 -16872 -602 285 74
424 716 -16908 -620 260 89
472 628 -16880 -607 265 148
476 824 -16960 -561 234 117
460 672 -16940 -581 263 77
568 636 -17084 -576 254 86
548 640 -16892 -583 250 84
468 756 -16852 -590 257 72
512 736 -16900 -569 250 106
588 656 -16920 -560 288 64
568 728 -17016 -555 286 81
564 756 -16956 -566 239 89
608 664 -16884 -578 227 96
468 700 -16872 -555 274 73
476 744 -16976 -589 262 100
576 760 -17004 -547 241 108
512 668 -16888 -574 245 105
